cue_img,cue_soa,target_x,trial,thisN,thisTrialN,thisRepN,key_control2.keys,key_control2.rt,key_control2.duration,key_resp.keys,key_resp.rt,key_resp.duration,practice.thisRepN,practice.thisTrialN,practice.thisN,practice.thisIndex,block1.thisRepN,block1.thisTrialN,block1.thisN,block1.thisIndex,block2.thisRepN,block2.thisTrialN,block2.thisN,block2.thisIndex,thisRow.t,notes,instructions.started,instructions_txt.started,key_control.started,instructions.stopped,key_control.keys,key_control.rt,key_control.duration,ready.started,ready_txt.started,ready_txt.stopped,ready.stopped,fix.started,fixation.started,key_control2.started,fixation_cross.started,fix.stopped,practice.key_control2.keys,practice.key_control2.rt,practice.key_control2.duration,cue.started,cube.started,fixation_cross_cue.started,cue.stopped,target.started,fixation_target.started,fixation_cross_target.started,key_resp.started,star.started,target.stopped,practice.key_resp.keys,practice.key_resp.rt,practice.key_resp.duration,star.stopped,fixation_target.stopped,fixation_cross_target.stopped,key_resp.stopped,block1.key_control2.keys,block1.key_control2.rt,block1.key_control2.duration,block1.key_resp.keys,block1.key_resp.rt,block1.key_resp.duration,cube.stopped,fixation_cross_cue.stopped,break_2.started,text.started,key_control3.started,text.stopped,break_2.stopped,key_control3.keys,key_control3.rt,key_control3.duration,block2.key_control2.keys,block2.key_control2.rt,block2.key_control2.duration,block2.key_resp.keys,block2.key_resp.rt,block2.key_resp.duration,participant,session,date,expName,psychopyVersion,frameRate,expStart,
,,,,,,,,,,,,,,,,,,,,,,,,,,,0.007331900000281166,0.03000919999976759,0.03000919999976759,1737.6456541000007,up,1737.6109728999982,None,,,,,,,,,,,,,,,,,,,,,,,,,,,,,,,,,,,,,,,,,,,,,,,,,,,,P145,001,2025-04-09_13h30.19.096,posner_endo_new1,2024.2.4,60.05980755598519,2025-04-09 13h30.25.110525 +0100,
,,,,,,,,,,,,,,,,,,,,,,,,,,,,,,,,,,1737.6457038000008,1737.6584481999998,1740.6590322999982,1740.6393203000007,,,,,,,,,,,,,,,,,,,,,,,,,,,,,,,,,,,,,,,,,,,,,,,,P145,001,2025-04-09_13h30.19.096,posner_endo_new1,2024.2.4,60.05980755598519,2025-04-09 13h30.25.110525 +0100,
cube_r.png,0.1,-0.31,invalid,0,0,0,up,38.1403492999998,None,space,0.837645399999019,None,0,0,0,2,,,,,,,,,1740.6590322999982,,,,,,,,,,,,,1740.6465247000015,1740.6590322999982,1740.6590322999982,1740.6590322999982,1778.8007840999999,up,38.1403492999998,None,1778.8252724000013,1778.8351952000012,1778.8351952000012,1778.8663522999996,1778.866578699999,1778.8830562000003,1778.8830562000003,1778.8830562000003,1778.9662032999986,1779.7326662999985,space,0.837645399999019,None,,,,,,,,,,,,,,,,,,,,,,,,,,,P145,001,2025-04-09_13h30.19.096,posner_endo_new1,2024.2.4,60.05980755598519,2025-04-09 13h30.25.110525 +0100,
cube_l.png,0.1,-0.31,valid,1,1,0,up,3.6430930999995326,None,space,0.4239589999997406,None,0,1,1,0,,,,,,,,,1779.748866599999,,,,,,,,,,,,,1779.7328296999985,1779.748866599999,1779.748866599999,1779.748866599999,1783.3960862999993,up,3.6430930999995326,None,1783.4084347999997,1783.418459299999,1783.418459299999,1783.4613420999995,1783.4617279999984,1783.4778074999995,1783.4778074999995,1783.4778074999995,1783.5610357000005,1783.9121926000007,space,0.4239589999997406,None,,,,,,,,,,,,,,,,,,,,,,,,,,,P145,001,2025-04-09_13h30.19.096,posner_endo_new1,2024.2.4,60.05980755598519,2025-04-09 13h30.25.110525 +0100,
cube_r.png,0.1,-0.31,invalid,2,2,0,up,1.856448200000159,None,space,0.4710464999989199,None,0,2,2,6,,,,,,,,,1783.9273582999995,,,,,,,,,,,,,1783.9124994999984,1783.9273582999995,1783.9273582999995,1783.9273582999995,1785.7934109999987,up,1.856448200000159,None,1785.8057692000002,1785.8157921999991,1785.8157921999991,1785.8592673999992,1785.859526799999,1785.8757474000013,1785.8757474000013,1785.8757474000013,1785.9590542000005,1786.3595950999988,space,0.4710464999989199,None,,,,,,,,,,,,,,,,,,,,,,,,,,,P145,001,2025-04-09_13h30.19.096,posner_endo_new1,2024.2.4,60.05980755598519,2025-04-09 13h30.25.110525 +0100,
cube_l.png,0.1,0.31,invalid,3,3,0,up,1.616742999998678,None,space,0.4768197000012151,None,0,3,3,5,,,,,,,,,1786.3753318000017,,,,,,,,,,,,,1786.359795299999,1786.3753318000017,1786.3753318000017,1786.3753318000017,1788.0078228999992,up,1.616742999998678,None,1788.0154595999993,1788.0265848000017,1788.0265848000017,1788.0738692000014,1788.0741321999994,1788.0902400000014,1788.0902400000014,1788.0902400000014,1788.1733926000015,1788.5739709000009,space,0.4768197000012151,None,,,,,,,,,,,,,,,,,,,,,,,,,,,P145,001,2025-04-09_13h30.19.096,posner_endo_new1,2024.2.4,60.05980755598519,2025-04-09 13h30.25.110525 +0100,
cube_r.png,0.1,0.31,valid,4,4,0,up,1.6657993999979226,None,space,0.32219370000166236,None,0,4,4,10,,,,,,,,,1788.5897982999995,,,,,,,,,,,,,1788.5741684999994,1788.5897982999995,1788.5897982999995,1788.5897982999995,1790.2722203000012,up,1.6657993999979226,None,1790.2797484000002,1790.2906554,1790.2906554,1790.3379576000007,1790.3384536000012,1790.3543480000008,1790.3543480000008,1790.3543480000008,1790.4376288999993,1790.6887807999992,space,0.32219370000166236,None,,,,,,,,,,,,,,,,,,,,,,,,,,,P145,001,2025-04-09_13h30.19.096,posner_endo_new1,2024.2.4,60.05980755598519,2025-04-09 13h30.25.110525 +0100,
cube_l.png,0.1,-0.31,valid,5,5,0,up,1.7355784999999742,None,space,0.3406582999996317,None,0,5,5,8,,,,,,,,,1790.7042002000017,,,,,,,,,,,,,1790.6890502999995,1790.7042002000017,1790.7042002000017,1790.7042002000017,1792.4535677999993,up,1.7355784999999742,None,1792.4646629000017,1792.4748729999992,1792.4748729999992,1792.5192496000018,1792.5195916999983,1792.535828,1792.535828,1792.535828,1792.6190871,1792.886428400001,space,0.3406582999996317,None,,,,,,,,,,,,,,,,,,,,,,,,,,,P145,001,2025-04-09_13h30.19.096,posner_endo_new1,2024.2.4,60.05980755598519,2025-04-09 13h30.25.110525 +0100,
cube_l.png,0.1,0.31,invalid,6,6,0,up,1.68979390000095,None,space,0.45391079999899375,None,0,6,6,1,,,,,,,,,1792.9020242000006,,,,,,,,,,,,,1792.8867008999987,1792.9020242000006,1792.9020242000006,1792.9020242000006,1794.6014495000018,up,1.68979390000095,None,1794.6096036000017,1794.6197463999997,1794.6197463999997,1794.6669278000008,1794.667177700001,1794.6834409000003,1794.6834409000003,1794.6834409000003,1794.7667145000014,1795.1505966000004,space,0.45391079999899375,None,,,,,,,,,,,,,,,,,,,,,,,,,,,P145,001,2025-04-09_13h30.19.096,posner_endo_new1,2024.2.4,60.05980755598519,2025-04-09 13h30.25.110525 +0100,
cube_r.png,0.1,-0.31,invalid,7,7,0,up,1.7697100000004866,None,space,0.5386859000027471,None,0,7,7,9,,,,,,,,,1795.1662576999988,,,,,,,,,,,,,1795.1507792999982,1795.1662576999988,1795.1662576999988,1795.1662576999988,1796.9485726999992,up,1.7697100000004866,None,1796.954639200001,1796.9662443000016,1796.9662443000016,1797.0144839999994,1797.0146972000002,1797.0339625999986,1797.0339625999986,1797.0339625999986,1797.0975700000017,1797.5814390000014,space,0.5386859000027471,None,,,,,,,,,,,,,,,,,,,,,,,,,,,P145,001,2025-04-09_13h30.19.096,posner_endo_new1,2024.2.4,60.05980755598519,2025-04-09 13h30.25.110525 +0100,
cube_r.png,0.1,10,catch,8,8,0,up,1.5782390999993368,None,None,,,0,8,8,3,,,,,,,,,1797.5971613000002,,,,,,,,,,,,,1797.5816057999982,1797.5971613000002,1797.5971613000002,1797.5971613000002,1799.179493399999,up,1.5782390999993368,None,1799.185078800001,1799.1966912999997,1799.1966912999997,1799.2455358000007,1799.2457563999997,1799.262125199999,1799.262125199999,1799.262125199999,1799.3288240000002,1802.2595488000006,None,,,1801.3433612000008,1802.2758254,1802.2758254,1802.2758254,,,,,,,,,,,,,,,,,,,,,,,P145,001,2025-04-09_13h30.19.096,posner_endo_new1,2024.2.4,60.05980755598519,2025-04-09 13h30.25.110525 +0100,
cube_l.png,0.1,-0.31,valid,9,9,0,up,1.755771399999503,None,space,0.4303034000004118,None,0,9,9,4,,,,,,,,,1802.2758254,,,,,,,,,,,,,1802.2597036000006,1802.2758254,1802.2758254,1802.2758254,1804.0412566999985,up,1.755771399999503,None,1804.0470300000015,1804.0585898999998,1804.0585898999998,1804.1074015000013,1804.1076218000017,1804.1240292000002,1804.1240292000002,1804.1240292000002,1804.1903352000008,1804.5574658000005,space,0.4303034000004118,None,,,,,,,,,,,,,,,,,,,,,,,,,,,P145,001,2025-04-09_13h30.19.096,posner_endo_new1,2024.2.4,60.05980755598519,2025-04-09 13h30.25.110525 +0100,
cube_r.png,0.1,0.31,valid,10,10,0,up,1.7860559000000649,None,space,0.42140680000011344,None,0,10,10,7,,,,,,,,,1804.5734616000009,,,,,,,,,,,,,1804.5576250000013,1804.5734616000009,1804.5734616000009,1804.5734616000009,1806.3723417,up,1.7860559000000649,None,1806.3780961999983,1806.3897590999986,1806.3897590999986,1806.4382073999986,1806.438704799999,1806.4546050999998,1806.4546050999998,1806.4546050999998,1806.5382376999987,1806.8889458000012,space,0.42140680000011344,None,,,,,,,,,,,,,,,,,,,,,,,,,,,P145,001,2025-04-09_13h30.19.096,posner_endo_new1,2024.2.4,60.05980755598519,2025-04-09 13h30.25.110525 +0100,
,,,,,,,,,,,,,,,,,,,,,,,,,,,,,,,,,,1806.889128499999,1806.9043308,1809.9148773000015,1809.8853318000001,,,,,,,,,,,,,,,,,,,,,,,,,,,,,,,,,,,,,,,,,,,,,,,,P145,001,2025-04-09_13h30.19.096,posner_endo_new1,2024.2.4,60.05980755598519,2025-04-09 13h30.25.110525 +0100,
cube_l.png,0.1,10,catch,0,0,0,up,9.205110399998375,None,None,,,,,,,0,0,0,0,,,,,1809.9148773000015,,,,,,,,,,,,,1809.9059654000012,1809.9148773000015,1809.9148773000015,1809.9148773000015,1819.1263999000003,,,,1819.1375016999991,1819.147819599999,1819.147819599999,1819.1920701999989,1819.1924179000016,1819.2084945999995,1819.2084945999995,1819.2084945999995,1819.2916953999993,1822.2061386999994,,,,1821.3064258999984,1822.2220884000017,1822.2220884000017,1822.2220884000017,up,9.205110399998375,None,None,,,,,,,,,,,,,,,,,,,P145,001,2025-04-09_13h30.19.096,posner_endo_new1,2024.2.4,60.05980755598519,2025-04-09 13h30.25.110525 +0100,
cube_l.png,0.1,10,catch,1,1,0,up,1.8976010000005772,None,None,,,,,,,0,1,1,1,,,,,1822.2220884000017,,,,,,,,,,,,,1822.2064070000015,1822.2220884000017,1822.2220884000017,1822.2220884000017,1824.1213839999982,,,,1824.1295076999995,1824.1396860999994,1824.1396860999994,1824.1869484999988,1824.187194099999,1824.2033162000007,1824.2033162000007,1824.2033162000007,1824.2865654000016,1827.2007078999995,,,,1826.3011503000016,1827.216965399999,1827.216965399999,1827.216965399999,up,1.8976010000005772,None,None,,,,,,,,,,,,,,,,,,,P145,001,2025-04-09_13h30.19.096,posner_endo_new1,2024.2.4,60.05980755598519,2025-04-09 13h30.25.110525 +0100,
cube_l.png,0.1,0.31,invalid,2,2,0,up,2.6950668999998015,None,space,0.4573992999976326,None,,,,,0,2,2,2,,,,,1827.216965399999,,,,,,,,,,,,,1827.200886300001,1827.216965399999,1827.216965399999,1827.216965399999,1829.9149118999994,,,,1829.921996000001,1829.9338108999982,1829.9338108999982,1829.9808816000004,1829.9811310000005,1829.9974750000001,1829.9974750000001,1829.9974750000001,1830.0640277999992,1830.4644812000006,,,,,,,,up,2.6950668999998015,None,space,0.4573992999976326,None,,,,,,,,,,,,,,,,,P145,001,2025-04-09_13h30.19.096,posner_endo_new1,2024.2.4,60.05980755598519,2025-04-09 13h30.25.110525 +0100,
cube_l.png,0.1,0.31,invalid,3,3,0,up,2.4634919999989506,None,space,0.5082537999987835,None,,,,,0,3,3,3,,,,,1830.4805527999997,,,,,,,,,,,,,1830.4646821999995,1830.4805527999997,1830.4805527999997,1830.4805527999997,1832.9452605000006,,,,1832.9522408000012,1832.9640235000006,1832.9640235000006,1833.0110815000007,1833.0113300999983,1833.0275344000001,1833.0275344000001,1833.0275344000001,1833.0942829000014,1833.5447228000012,,,,,,,,up,2.4634919999989506,None,space,0.5082537999987835,None,,,,,,,,,,,,,,,,,P145,001,2025-04-09_13h30.19.096,posner_endo_new1,2024.2.4,60.05980755598519,2025-04-09 13h30.25.110525 +0100,
cube_l.png,0.1,-0.31,valid,4,4,0,up,3.7356251000019256,None,space,0.4154865999989852,None,,,,,0,4,4,4,,,,,1833.5605576000016,,,,,,,,,,,,,1833.5449345999987,1833.5605576000016,1833.5605576000016,1833.5605576000016,1837.3073284999991,,,,1837.3142382000005,1837.3260058999986,1837.3260058999986,1837.373290200001,1837.3735135999996,1837.389854500001,1837.389854500001,1837.389854500001,1837.456535199999,1837.807005999999,,,,,,,,up,3.7356251000019256,None,space,0.4154865999989852,None,,,,,,,,,,,,,,,,,P145,001,2025-04-09_13h30.19.096,posner_endo_new1,2024.2.4,60.05980755598519,2025-04-09 13h30.25.110525 +0100,
cube_r.png,0.1,-0.31,invalid,5,5,0,up,3.849284299998544,None,space,0.49658289999933913,None,,,,,0,5,5,5,,,,,1837.8227187000011,,,,,,,,,,,,,1837.8071820000005,1837.8227187000011,1837.8227187000011,1837.8227187000011,1841.6862155999988,,,,1841.6919334000013,1841.7035656000007,1841.7035656000007,1841.7521144999992,1841.7526141000017,1841.768555300001,1841.768555300001,1841.768555300001,1841.8517896000012,1842.2696318999988,,,,,,,,up,3.849284299998544,None,space,0.49658289999933913,None,,,,,,,,,,,,,,,,,P145,001,2025-04-09_13h30.19.096,posner_endo_new1,2024.2.4,60.05980755598519,2025-04-09 13h30.25.110525 +0100,
cube_r.png,0.1,0.31,valid,6,6,0,up,4.642877100002806,None,space,0.38016379999680794,None,,,,,0,6,6,6,,,,,1842.2849055000006,,,,,,,,,,,,,1842.269916199999,1842.2849055000006,1842.2849055000006,1842.2849055000006,1846.9314625000006,,,,1846.9423902999988,1846.952718299999,1846.952718299999,1846.9969788000017,1846.9973299999983,1847.0133483999998,1847.0133483999998,1847.0133483999998,1847.0967511999988,1847.397535,,,,,,,,up,4.642877100002806,None,space,0.38016379999680794,None,,,,,,,,,,,,,,,,,P145,001,2025-04-09_13h30.19.096,posner_endo_new1,2024.2.4,60.05980755598519,2025-04-09 13h30.25.110525 +0100,
cube_r.png,0.1,-0.31,invalid,7,7,0,up,10.67531229999804,None,space,0.5634732999969856,None,,,,,0,7,7,7,,,,,1847.4131038999985,,,,,,,,,,,,,1847.3978185000014,1847.4131038999985,1847.4131038999985,1847.4131038999985,1858.1033081999994,,,,1858.1143029000013,1858.1245898999987,1858.1245898999987,1858.1688447000015,1858.1691844999987,1858.1855324999997,1858.1855324999997,1858.1855324999997,1858.2686658999992,1858.7527888000004,,,,,,,,up,10.67531229999804,None,space,0.5634732999969856,None,,,,,,,,,,,,,,,,,P145,001,2025-04-09_13h30.19.096,posner_endo_new1,2024.2.4,60.05980755598519,2025-04-09 13h30.25.110525 +0100,
cube_l.png,0.1,-0.31,valid,8,8,0,up,1.6089853000012226,None,space,0.414556799998536,None,,,,,0,8,8,8,,,,,1858.7682423000006,,,,,,,,,,,,,1858.7530803000009,1858.7682423000006,1858.7682423000006,1858.7682423000006,1860.3842527000015,,,,1860.3952258999998,1860.405546599999,1860.405546599999,1860.4499690000011,1860.4503151999997,1860.4663770000006,1860.4663770000006,1860.4663770000006,1860.5496879999992,1860.8838541000005,,,,,,,,up,1.6089853000012226,None,space,0.414556799998536,None,,,,,,,,,,,,,,,,,P145,001,2025-04-09_13h30.19.096,posner_endo_new1,2024.2.4,60.05980755598519,2025-04-09 13h30.25.110525 +0100,
cube_r.png,0.1,-0.31,invalid,9,9,0,up,1.7087014999997336,None,space,0.4662986000003002,None,,,,,0,9,9,9,,,,,1860.8992378000003,,,,,,,,,,,,,1860.8841474,1860.8992378000003,1860.8992378000003,1860.8992378000003,1862.615451900001,,,,1862.626455900001,1862.6368487,1862.6368487,1862.680984999999,1862.6813279000016,1862.6973875000003,1862.6973875000003,1862.6973875000003,1862.7806230999995,1863.1648633000004,,,,,,,,up,1.7087014999997336,None,space,0.4662986000003002,None,,,,,,,,,,,,,,,,,P145,001,2025-04-09_13h30.19.096,posner_endo_new1,2024.2.4,60.05980755598519,2025-04-09 13h30.25.110525 +0100,
cube_l.png,0.1,0.31,invalid,10,10,0,up,1.7716206000004604,None,space,0.35877590000018245,None,,,,,0,10,10,10,,,,,1863.1802547000007,,,,,,,,,,,,,1863.1651457000007,1863.1802547000007,1863.1802547000007,1863.1802547000007,1864.9629214000015,,,,1864.9739128,1864.9842080999988,1864.9842080999988,1865.0285307000013,1865.0288784000004,1865.0450730000011,1865.0450730000011,1865.0450730000011,1865.1282299000013,1865.4126791999988,,,,,,,,up,1.7716206000004604,None,space,0.35877590000018245,None,,,,,,,,,,,,,,,,,P145,001,2025-04-09_13h30.19.096,posner_endo_new1,2024.2.4,60.05980755598519,2025-04-09 13h30.25.110525 +0100,
cube_r.png,0.1,-0.31,invalid,11,11,0,up,1.77977810000084,None,space,0.4229893000010634,None,,,,,0,11,11,11,,,,,1865.4280776000014,,,,,,,,,,,,,1865.4129734000016,1865.4280776000014,1865.4280776000014,1865.4280776000014,1867.210862,,,,1867.2217654999986,1867.2319902000017,1867.2319902000017,1867.2762461999992,1867.2765881000014,1867.2927495000004,1867.2927495000004,1867.2927495000004,1867.3760038,1867.7268031999993,,,,,,,,up,1.77977810000084,None,space,0.4229893000010634,None,,,,,,,,,,,,,,,,,P145,001,2025-04-09_13h30.19.096,posner_endo_new1,2024.2.4,60.05980755598519,2025-04-09 13h30.25.110525 +0100,
cube_r.png,0.1,0.31,valid,12,12,0,up,1.6895469000010053,None,space,0.3059967000008328,None,,,,,0,12,12,12,,,,,1867.742317100001,,,,,,,,,,,,,1867.7270866,1867.742317100001,1867.742317100001,1867.742317100001,1869.4417705000014,,,,1869.452736700001,1869.4630097000008,1869.4630097000008,1869.5073828999994,1869.5077233999982,1869.5237076000012,1869.5237076000012,1869.5237076000012,1869.6070727000006,1869.8413508000012,,,,,,,,up,1.6895469000010053,None,space,0.3059967000008328,None,,,,,,,,,,,,,,,,,P145,001,2025-04-09_13h30.19.096,posner_endo_new1,2024.2.4,60.05980755598519,2025-04-09 13h30.25.110525 +0100,
cube_l.png,0.1,10,catch,13,13,0,up,1.8632255000011355,None,None,,,,,,,0,13,13,13,,,,,1869.8567074999992,,,,,,,,,,,,,1869.8416395999993,1869.8567074999992,1869.8567074999992,1869.8567074999992,1871.722819999999,,,,1871.7337177000009,1871.7440223999984,1871.7440223999984,1871.7883065999995,1871.7886483000002,1871.804623600001,1871.804623600001,1871.804623600001,1871.8880898999996,1874.8025089000002,,,,1873.9026670999992,1874.8183032000015,1874.8183032000015,1874.8183032000015,up,1.8632255000011355,None,None,,,,,,,,,,,,,,,,,,,P145,001,2025-04-09_13h30.19.096,posner_endo_new1,2024.2.4,60.05980755598519,2025-04-09 13h30.25.110525 +0100,
cube_r.png,0.1,-0.31,invalid,14,14,0,up,1.7574624000008043,None,space,0.5019920000013371,None,,,,,0,14,14,14,,,,,1874.8183032000015,,,,,,,,,,,,,1874.8027728000015,1874.8183032000015,1874.8183032000015,1874.8183032000015,1876.5845520000003,,,,1876.5954682999982,1876.6057413999988,1876.6057413999988,1876.6500763000004,1876.6504190000014,1876.6665748999985,1876.6665748999985,1876.6665748999985,1876.749863699999,1877.183904900001,,,,,,,,up,1.7574624000008043,None,space,0.5019920000013371,None,,,,,,,,,,,,,,,,,P145,001,2025-04-09_13h30.19.096,posner_endo_new1,2024.2.4,60.05980755598519,2025-04-09 13h30.25.110525 +0100,
cube_l.png,0.1,-0.31,valid,15,15,0,up,1.816482399997767,None,space,0.38248680000106106,None,,,,,0,15,15,15,,,,,1877.1991670999996,,,,,,,,,,,,,1877.1841897000013,1877.1991670999996,1877.1991670999996,1877.1991670999996,1879.0320027000016,,,,1879.0429934999993,1879.0529515000017,1879.0529515000017,1879.0974738000004,1879.0978208999986,1879.1140024999986,1879.1140024999986,1879.1140024999986,1879.1973096000002,1879.4982477999984,,,,,,,,up,1.816482399997767,None,space,0.38248680000106106,None,,,,,,,,,,,,,,,,,P145,001,2025-04-09_13h30.19.096,posner_endo_new1,2024.2.4,60.05980755598519,2025-04-09 13h30.25.110525 +0100,
cube_r.png,0.1,10,catch,16,16,0,up,1.6059131000001798,None,None,,,,,,,0,16,16,16,,,,,1879.5137061999994,,,,,,,,,,,,,1879.4985395000003,1879.5137061999994,1879.5137061999994,1879.5137061999994,1881.1296258000002,,,,1881.1405874999982,1881.1508919000007,1881.1508919000007,1881.195388600001,1881.1957341000016,1881.2118031999998,1881.2118031999998,1881.2118031999998,1881.2950826000015,1884.2094977000015,,,,1883.3097669999988,1884.2254455000002,1884.2254455000002,1884.2254455000002,up,1.6059131000001798,None,None,,,,,,,,,,,,,,,,,,,P145,001,2025-04-09_13h30.19.096,posner_endo_new1,2024.2.4,60.05980755598519,2025-04-09 13h30.25.110525 +0100,
cube_r.png,0.1,10,catch,17,17,0,up,1.646757800001069,None,None,,,,,,,0,17,17,17,,,,,1884.2254455000002,,,,,,,,,,,,,1884.2097613000005,1884.2254455000002,1884.2254455000002,1884.2254455000002,1885.875007300001,,,,1885.8859301000011,1885.8962025,1885.8962025,1885.9407379000004,1885.941081500001,1885.9569159999992,1885.9569159999992,1885.9569159999992,1886.0404283999997,1888.9547760999994,,,,1888.0548639000008,1888.9705431000002,1888.9705431000002,1888.9705431000002,up,1.646757800001069,None,None,,,,,,,,,,,,,,,,,,,P145,001,2025-04-09_13h30.19.096,posner_endo_new1,2024.2.4,60.05980755598519,2025-04-09 13h30.25.110525 +0100,
cube_l.png,0.1,0.31,invalid,18,18,0,up,1.8304057999994257,None,space,0.6043360000003304,None,,,,,0,18,18,18,,,,,1888.9705431000002,,,,,,,,,,,,,1888.955066999999,1888.9705431000002,1888.9705431000002,1888.9705431000002,1890.8033894,,,,1890.814398999999,1890.8247570999993,1890.8247570999993,1890.868751099999,1890.8690965999995,1890.8852836000005,1890.8852836000005,1890.8852836000005,1890.9685242000014,1891.5024854000003,,,,,,,,up,1.8304057999994257,None,space,0.6043360000003304,None,,,,,,,,,,,,,,,,,P145,001,2025-04-09_13h30.19.096,posner_endo_new1,2024.2.4,60.05980755598519,2025-04-09 13h30.25.110525 +0100,
cube_l.png,0.1,10,catch,19,19,0,up,2.915164400001231,None,None,,,,,,,0,19,19,19,,,,,1891.5179661000002,,,,,,,,,,,,,1891.5027725,1891.5179661000002,1891.5179661000002,1891.5179661000002,1894.4495438000013,,,,1894.4605382000009,1894.4705343999995,1894.4705343999995,1894.5150744999992,1894.5154251999993,1894.5315865999983,1894.5315865999983,1894.5315865999983,1894.614740500001,1897.5292803999982,,,,1896.6294233000008,1897.5452084999997,1897.5452084999997,1897.5452084999997,up,2.915164400001231,None,None,,,,,,,,,,,,,,,,,,,P145,001,2025-04-09_13h30.19.096,posner_endo_new1,2024.2.4,60.05980755598519,2025-04-09 13h30.25.110525 +0100,
cube_l.png,0.1,0.31,invalid,20,20,0,up,3.814570200000162,None,space,0.496504200000345,None,,,,,0,20,20,20,,,,,1897.5452084999997,,,,,,,,,,,,,1897.5295502000008,1897.5452084999997,1897.5452084999997,1897.5452084999997,1901.3757291000002,,,,1901.3868550000007,1901.3971813999997,1901.3971813999997,1901.4412921000003,1901.4416359999996,1901.4579741000016,1901.4579741000016,1901.4579741000016,1901.5410969000004,1901.9584781999984,,,,,,,,up,3.814570200000162,None,space,0.496504200000345,None,,,,,,,,,,,,,,,,,P145,001,2025-04-09_13h30.19.096,posner_endo_new1,2024.2.4,60.05980755598519,2025-04-09 13h30.25.110525 +0100,
cube_l.png,0.1,-0.31,valid,21,21,0,up,1.5137696999991022,None,space,0.42317430000184686,None,,,,,0,21,21,21,,,,,1901.9739842000017,,,,,,,,,,,,,1901.958774499999,1901.9739842000017,1901.9739842000017,1901.9739842000017,1903.4904387999995,,,,1903.501462100001,1903.5117616999996,1903.5117616999996,1903.5559380999985,1903.556278600001,1903.5723225000002,1903.5723225000002,1903.5723225000002,1903.6555818999987,1904.0063456999997,,,,,,,,up,1.5137696999991022,None,space,0.42317430000184686,None,,,,,,,,,,,,,,,,,P145,001,2025-04-09_13h30.19.096,posner_endo_new1,2024.2.4,60.05980755598519,2025-04-09 13h30.25.110525 +0100,
cube_r.png,0.1,0.31,valid,22,22,0,up,1.7547011999995448,None,space,0.4672960999996576,None,,,,,0,22,22,22,,,,,1904.0219070999992,,,,,,,,,,,,,1904.0066364999984,1904.0219070999992,1904.0219070999992,1904.0219070999992,1905.7880437999993,,,,1905.7989998999983,1905.8096116000015,1905.8096116000015,1905.8535585999998,1905.8539007,1905.8699549999983,1905.8699549999983,1905.8699549999983,1905.9531932999998,1906.3540205999998,,,,,,,,up,1.7547011999995448,None,space,0.4672960999996576,None,,,,,,,,,,,,,,,,,P145,001,2025-04-09_13h30.19.096,posner_endo_new1,2024.2.4,60.05980755598519,2025-04-09 13h30.25.110525 +0100,
cube_r.png,0.1,-0.31,invalid,23,23,0,up,1.7758222000011301,None,space,0.5199243999995815,None,,,,,0,23,23,23,,,,,1906.3695536000014,,,,,,,,,,,,,1906.3543314999988,1906.3695536000014,1906.3695536000014,1906.3695536000014,1908.1521786000012,,,,1908.1631387000016,1908.1733698999997,1908.1733698999997,1908.217785500001,1908.218127,1908.2341205000012,1908.2341205000012,1908.2341205000012,1908.3174822,1908.7681888000006,,,,,,,,up,1.7758222000011301,None,space,0.5199243999995815,None,,,,,,,,,,,,,,,,,P145,001,2025-04-09_13h30.19.096,posner_endo_new1,2024.2.4,60.05980755598519,2025-04-09 13h30.25.110525 +0100,
cube_r.png,0.1,0.31,valid,24,24,0,up,2.5842066000004706,None,space,0.3652758000025642,None,,,,,0,24,24,24,,,,,1908.7836430999996,,,,,,,,,,,,,1908.7684722000013,1908.7836430999996,1908.7836430999996,1908.7836430999996,1911.3821758000013,,,,1911.3930808000005,1911.4034704000005,1911.4034704000005,1911.4477708000013,1911.4481135999995,1911.4642907999987,1911.4642907999987,1911.4642907999987,1911.5474947000002,1911.8319536000017,,,,,,,,up,2.5842066000004706,None,space,0.3652758000025642,None,,,,,,,,,,,,,,,,,P145,001,2025-04-09_13h30.19.096,posner_endo_new1,2024.2.4,60.05980755598519,2025-04-09 13h30.25.110525 +0100,
cube_r.png,0.1,-0.31,invalid,25,25,0,up,1.7126664999996137,None,space,0.45097159999932046,None,,,,,0,25,25,25,,,,,1911.8472083999986,,,,,,,,,,,,,1911.8322393000017,1911.8472083999986,1911.8472083999986,1911.8472083999986,1913.563393299999,,,,1913.574360300001,1913.584778299999,1913.584778299999,1913.6289801999992,1913.6293226000016,1913.645502899999,1913.645502899999,1913.645502899999,1913.7287036999987,1914.1128701000016,,,,,,,,up,1.7126664999996137,None,space,0.45097159999932046,None,,,,,,,,,,,,,,,,,P145,001,2025-04-09_13h30.19.096,posner_endo_new1,2024.2.4,60.05980755598519,2025-04-09 13h30.25.110525 +0100,
cube_l.png,0.1,-0.31,valid,26,26,0,up,1.6874168000031204,None,space,0.4402276000000711,None,,,,,0,26,26,26,,,,,1914.1281818999996,,,,,,,,,,,,,1914.1131547000005,1914.1281818999996,1914.1281818999996,1914.1281818999996,1915.8276740000001,,,,1915.8372587000013,1915.8469489000017,1915.8469489000017,1915.893029499999,1915.8932772000007,1915.9096962000003,1915.9096962000003,1915.9096962000003,1915.992983600001,1916.3601299000002,,,,,,,,up,1.6874168000031204,None,space,0.4402276000000711,None,,,,,,,,,,,,,,,,,P145,001,2025-04-09_13h30.19.096,posner_endo_new1,2024.2.4,60.05980755598519,2025-04-09 13h30.25.110525 +0100,
cube_r.png,0.1,0.31,valid,27,27,0,up,1.575788800000737,None,space,0.38046530000065104,None,,,,,0,27,27,27,,,,,1916.375843599999,,,,,,,,,,,,,1916.3603221999983,1916.375843599999,1916.375843599999,1916.375843599999,1917.9584565000005,,,,1917.9654536000016,1917.9773147000014,1917.9773147000014,1918.0242153,1918.0244615999982,1918.0408347999983,1918.0408347999983,1918.0408347999983,1918.1074728999993,1918.4246749999984,,,,,,,,up,1.575788800000737,None,space,0.38046530000065104,None,,,,,,,,,,,,,,,,,P145,001,2025-04-09_13h30.19.096,posner_endo_new1,2024.2.4,60.05980755598519,2025-04-09 13h30.25.110525 +0100,
cube_r.png,0.1,10,catch,28,28,0,up,1.6954860999976518,None,None,,,,,,,0,28,28,28,,,,,1918.440396099999,,,,,,,,,,,,,1918.4248671999994,1918.440396099999,1918.440396099999,1918.440396099999,1920.1396137999982,,,,1920.1465600999982,1920.1584374000013,1920.1584374000013,1920.2052087999982,1920.2054553000016,1920.2219598999982,1920.2219598999982,1920.2219598999982,1920.3052452999982,1923.219681999999,,,,1922.3197698000004,1923.2354535000013,1923.2354535000013,1923.2354535000013,up,1.6954860999976518,None,None,,,,,,,,,,,,,,,,,,,P145,001,2025-04-09_13h30.19.096,posner_endo_new1,2024.2.4,60.05980755598519,2025-04-09 13h30.25.110525 +0100,
cube_r.png,0.1,0.31,valid,29,29,0,up,4.245054999999411,None,space,0.435100999999122,None,,,,,0,29,29,29,,,,,1923.2354535000013,,,,,,,,,,,,,1923.2198620999989,1923.2354535000013,1923.2354535000013,1923.2354535000013,1927.4821727000017,,,,1927.4891742,1927.5008411999988,1927.5008411999988,1927.5478452999996,1927.5483367000015,1927.5643125999995,1927.5643125999995,1927.5643125999995,1927.6475527000002,1928.0152386000009,,,,,,,,up,4.245054999999411,None,space,0.435100999999122,None,,,,,,,,,,,,,,,,,P145,001,2025-04-09_13h30.19.096,posner_endo_new1,2024.2.4,60.05980755598519,2025-04-09 13h30.25.110525 +0100,
cube_r.png,0.1,0.31,valid,30,30,0,up,1.6979281999992963,None,space,0.4180376000003889,None,,,,,0,30,30,30,,,,,1928.0307437999982,,,,,,,,,,,,,1928.0155354000017,1928.0307437999982,1928.0307437999982,1928.0307437999982,1929.7302267000014,,,,1929.7411825999989,1929.7514348000004,1929.7514348000004,1929.7956759000008,1929.7960184000003,1929.8124653999985,1929.8124653999985,1929.8124653999985,1929.895339499999,1930.2462847999996,,,,,,,,up,1.6979281999992963,None,space,0.4180376000003889,None,,,,,,,,,,,,,,,,,P145,001,2025-04-09_13h30.19.096,posner_endo_new1,2024.2.4,60.05980755598519,2025-04-09 13h30.25.110525 +0100,
cube_l.png,0.1,-0.31,valid,31,31,0,up,1.7226802000004682,None,space,0.38059870000142837,None,,,,,0,31,31,31,,,,,1930.2617734000014,,,,,,,,,,,,,1930.2465755000012,1930.2617734000014,1930.2617734000014,1930.2617734000014,1931.994488799999,,,,1932.0055157999996,1932.0157701999997,1932.0157701999997,1932.0601056999985,1932.0604531999998,1932.0766442999993,1932.0766442999993,1932.0766442999993,1932.1598052000008,1932.4608407000014,,,,,,,,up,1.7226802000004682,None,space,0.38059870000142837,None,,,,,,,,,,,,,,,,,P145,001,2025-04-09_13h30.19.096,posner_endo_new1,2024.2.4,60.05980755598519,2025-04-09 13h30.25.110525 +0100,
cube_r.png,0.1,0.31,valid,32,32,0,up,1.5721325000013167,None,space,0.32704930000181776,None,,,,,0,32,32,32,,,,,1932.4762388999989,,,,,,,,,,,,,1932.4611307999985,1932.4762388999989,1932.4762388999989,1932.4762388999989,1934.0590754000004,,,,1934.0701534,1934.0803051000003,1934.0803051000003,1934.1246810000011,1934.1250241999987,1934.1411019000006,1934.1411019000006,1934.1411019000006,1934.2244236000006,1934.4751672999992,,,,,,,,up,1.5721325000013167,None,space,0.32704930000181776,None,,,,,,,,,,,,,,,,,P145,001,2025-04-09_13h30.19.096,posner_endo_new1,2024.2.4,60.05980755598519,2025-04-09 13h30.25.110525 +0100,
cube_r.png,0.1,-0.31,invalid,33,33,0,up,1.677626999997301,None,space,0.3404393999990134,None,,,,,0,33,33,33,,,,,1934.4907480000002,,,,,,,,,,,,,1934.475461099999,1934.4907480000002,1934.4907480000002,1934.4907480000002,1936.1736990999998,,,,1936.1846397000008,1936.1949075999983,1936.1949075999983,1936.2391045000004,1936.2394520999987,1936.2556556000018,1936.2556556000018,1936.2556556000018,1936.3388888000009,1936.606480999999,,,,,,,,up,1.677626999997301,None,space,0.3404393999990134,None,,,,,,,,,,,,,,,,,P145,001,2025-04-09_13h30.19.096,posner_endo_new1,2024.2.4,60.05980755598519,2025-04-09 13h30.25.110525 +0100,
cube_r.png,0.1,10,catch,34,34,0,up,1.7303252999990946,None,None,,,,,,,0,34,34,34,,,,,1936.6219192999997,,,,,,,,,,,,,1936.6067641000009,1936.6219192999997,1936.6219192999997,1936.6219192999997,1938.3546189000008,,,,1938.3656833999994,1938.375962099999,1938.375962099999,1938.4201753000016,1938.4204334999995,1938.4368302000003,1938.4368302000003,1938.4368302000003,1938.5201358000013,1941.4342031000015,,,,1940.5345186000013,1941.4501949000005,1941.4501949000005,1941.4501949000005,up,1.7303252999990946,None,None,,,,,,,,,,,,,,,,,,,P145,001,2025-04-09_13h30.19.096,posner_endo_new1,2024.2.4,60.05980755598519,2025-04-09 13h30.25.110525 +0100,
cube_r.png,0.1,0.31,valid,35,35,0,up,1.5900177000003168,None,space,0.34515710000050603,None,,,,,0,35,35,35,,,,,1941.4501949000005,,,,,,,,,,,,,1941.434384600001,1941.4501949000005,1941.4501949000005,1941.4501949000005,1943.0494414999994,,,,1943.0564006999994,1943.0682412999995,1943.0682412999995,1943.1155493000006,1943.1157735000015,1943.1319863999997,1943.1319863999997,1943.1319863999997,1943.1984674999985,1943.4823109999998,,,,,,,,up,1.5900177000003168,None,space,0.34515710000050603,None,,,,,,,,,,,,,,,,,P145,001,2025-04-09_13h30.19.096,posner_endo_new1,2024.2.4,60.05980755598519,2025-04-09 13h30.25.110525 +0100,
cube_r.png,0.1,-0.31,invalid,36,36,0,up,1.6698664000032295,None,space,0.38243380000130855,None,,,,,0,36,36,36,,,,,1943.4982616999987,,,,,,,,,,,,,1943.4824872999998,1943.4982616999987,1943.4982616999987,1943.4982616999987,1945.180296999999,,,,1945.1859695999992,1945.1975272000018,1945.1975272000018,1945.2303667000015,1945.2305866999995,1945.2465008,1945.2465008,1945.2465008,1945.3297352000009,1945.6302319999995,,,,,,,,up,1.6698664000032295,None,space,0.38243380000130855,None,1945.2465008,1945.2465008,,,,,,,,,,,,,,,P145,001,2025-04-09_13h30.19.096,posner_endo_new1,2024.2.4,60.05980755598519,2025-04-09 13h30.25.110525 +0100,
cube_l.png,0.1,0.31,invalid,37,37,0,up,1.690567599998758,None,space,0.4006100000005972,None,,,,,0,37,37,37,,,,,1945.6461821999983,,,,,,,,,,,,,1945.630408500001,1945.6461821999983,1945.6461821999983,1945.6461821999983,1947.3451228999984,,,,1947.3508383000008,1947.3625848999982,1947.3625848999982,1947.4109968999983,1947.4112171999986,1947.4275022000002,1947.4275022000002,1947.4275022000002,1947.494283600001,1947.844537699999,,,,,,,,up,1.690567599998758,None,space,0.4006100000005972,None,,,,,,,,,,,,,,,,,P145,001,2025-04-09_13h30.19.096,posner_endo_new1,2024.2.4,60.05980755598519,2025-04-09 13h30.25.110525 +0100,
cube_l.png,0.1,0.31,invalid,38,38,0,up,1.71586109999771,None,space,0.40240080000148737,None,,,,,0,38,38,38,,,,,1947.8604926000007,,,,,,,,,,,,,1947.844705899999,1947.8604926000007,1947.8604926000007,1947.8604926000007,1949.5927598999988,,,,1949.598524500001,1949.6101440999992,1949.6101440999992,1949.6588115999984,1949.6590370999984,1949.6753901999982,1949.6753901999982,1949.6753901999982,1949.7417440999998,1950.0921780999997,,,,,,,,up,1.71586109999771,None,space,0.40240080000148737,None,,,,,,,,,,,,,,,,,P145,001,2025-04-09_13h30.19.096,posner_endo_new1,2024.2.4,60.05980755598519,2025-04-09 13h30.25.110525 +0100,
cube_r.png,0.1,0.31,valid,39,39,0,up,1.7082797000002756,None,space,0.3961495000003197,None,,,,,0,39,39,39,,,,,1950.1081307999993,,,,,,,,,,,,,1950.0923508999986,1950.1081307999993,1950.1081307999993,1950.1081307999993,1951.8235642,,,,1951.8292564000003,1951.8408474999997,1951.8408474999997,1951.8897728999982,1951.8899949000006,1951.906315100001,1951.906315100001,1951.906315100001,1951.9729469999984,1952.3066620999998,,,,,,,,up,1.7082797000002756,None,space,0.3961495000003197,None,,,,,,,,,,,,,,,,,P145,001,2025-04-09_13h30.19.096,posner_endo_new1,2024.2.4,60.05980755598519,2025-04-09 13h30.25.110525 +0100,
cube_l.png,0.1,0.31,invalid,40,40,0,up,1.7733059999991383,None,space,0.3550558999995701,None,,,,,0,40,40,40,,,,,1952.3225759000015,,,,,,,,,,,,,1952.3068292999997,1952.3225759000015,1952.3225759000015,1952.3225759000015,1954.1047313000017,,,,1954.1103853999994,1954.1220681999985,1954.1220681999985,1954.170623099999,1954.170844799999,1954.187466899999,1954.187466899999,1954.187466899999,1954.2538728,1954.5544095000005,,,,,,,,up,1.7733059999991383,None,space,0.3550558999995701,None,,,,,,,,,,,,,,,,,P145,001,2025-04-09_13h30.19.096,posner_endo_new1,2024.2.4,60.05980755598519,2025-04-09 13h30.25.110525 +0100,
cube_l.png,0.1,10,catch,41,41,0,up,1.84560380000039,None,None,,,,,,,0,41,41,41,,,,,1954.5703030000004,,,,,,,,,,,,,1954.5545779999993,1954.5703030000004,1954.5703030000004,1954.5703030000004,1956.4191609000009,,,,1956.4249488999994,1956.4371041000013,1956.4371041000013,1956.4846800000014,1956.485096100001,1956.5011365999999,1956.5011365999999,1956.5011365999999,1956.5843983000013,1959.4994202999987,,,,1958.599242100001,1959.5149686000004,1959.5149686000004,1959.5149686000004,up,1.84560380000039,None,None,,,,,,,,,,,,,,,,,,,P145,001,2025-04-09_13h30.19.096,posner_endo_new1,2024.2.4,60.05980755598519,2025-04-09 13h30.25.110525 +0100,
cube_l.png,0.1,-0.31,valid,42,42,0,up,4.2299198000000615,None,space,0.3804054000029282,None,,,,,0,42,42,42,,,,,1959.5149686000004,,,,,,,,,,,,,1959.4998272000012,1959.5149686000004,1959.5149686000004,1959.5149686000004,1963.7619563000007,,,,1963.7731065000007,1963.7831503000016,1963.7831503000016,1963.827693700001,1963.8280381000004,1963.8440999000013,1963.8440999000013,1963.8440999000013,1963.9273453999995,1964.2285258999982,,,,,,,,up,4.2299198000000615,None,space,0.3804054000029282,None,,,,,,,,,,,,,,,,,P145,001,2025-04-09_13h30.19.096,posner_endo_new1,2024.2.4,60.05980755598519,2025-04-09 13h30.25.110525 +0100,
cube_l.png,0.1,10,catch,43,43,0,up,1.8459115000005113,None,None,,,,,,,0,43,43,43,,,,,1964.2437396999994,,,,,,,,,,,,,1964.2288098999998,1964.2437396999994,1964.2437396999994,1964.2437396999994,1966.0928712999994,,,,1966.1038407000015,1966.1141777000012,1966.1141777000012,1966.1585610000002,1966.1589043999993,1966.1751698000007,1966.1751698000007,1966.1751698000007,1966.2583683000012,1969.1728263000005,,,,1968.2729292000004,1969.1886233000005,1969.1886233000005,1969.1886233000005,up,1.8459115000005113,None,None,,,,,,,,,,,,,,,,,,,P145,001,2025-04-09_13h30.19.096,posner_endo_new1,2024.2.4,60.05980755598519,2025-04-09 13h30.25.110525 +0100,
cube_l.png,0.1,0.31,invalid,44,44,0,up,1.6034515999999712,None,space,0.602026600001409,None,,,,,0,44,44,44,,,,,1969.1886233000005,,,,,,,,,,,,,1969.1730953000006,1969.1886233000005,1969.1886233000005,1969.1886233000005,1970.8048909999998,,,,1970.8158986999988,1970.8261404000004,1970.8261404000004,1970.8704777999992,1970.8708210000004,1970.8869108,1970.8869108,1970.8869108,1970.9702781999986,1971.5041611000015,,,,,,,,up,1.6034515999999712,None,space,0.602026600001409,None,,,,,,,,,,,,,,,,,P145,001,2025-04-09_13h30.19.096,posner_endo_new1,2024.2.4,60.05980755598519,2025-04-09 13h30.25.110525 +0100,
cube_l.png,0.1,0.31,invalid,45,45,0,up,1.4887223000005179,None,space,0.4765078000018548,None,,,,,0,45,45,45,,,,,1971.519518699999,,,,,,,,,,,,,1971.5044455999996,1971.519518699999,1971.519518699999,1971.519518699999,1973.0191860999985,,,,1973.0302217999997,1973.0405051999987,1973.0405051999987,1973.0849372000011,1973.085285699999,1973.1014179999984,1973.1014179999984,1973.1014179999984,1973.1846159999986,1973.5853945999988,,,,,,,,up,1.4887223000005179,None,space,0.4765078000018548,None,,,,,,,,,,,,,,,,,P145,001,2025-04-09_13h30.19.096,posner_endo_new1,2024.2.4,60.05980755598519,2025-04-09 13h30.25.110525 +0100,
cube_r.png,0.1,0.31,valid,46,46,0,up,2.6159599000020535,None,space,0.384739900000568,None,,,,,0,46,46,46,,,,,1973.6008356999992,,,,,,,,,,,,,1973.5856767000005,1973.6008356999992,1973.6008356999992,1973.6008356999992,1976.2327127999997,,,,1976.243725100001,1976.2540130000016,1976.2540130000016,1976.2982607999984,1976.2986056000009,1976.3147643000011,1976.3147643000011,1976.3147643000011,1976.3979435,1976.7155620000012,,,,,,,,up,2.6159599000020535,None,space,0.384739900000568,None,,,,,,,,,,,,,,,,,P145,001,2025-04-09_13h30.19.096,posner_endo_new1,2024.2.4,60.05980755598519,2025-04-09 13h30.25.110525 +0100,
cube_l.png,0.1,-0.31,valid,47,47,0,up,1.909450700000889,None,space,0.3587580999992497,None,,,,,0,47,47,47,,,,,1976.730967200001,,,,,,,,,,,,,1976.7158425000016,1976.730967200001,1976.730967200001,1976.730967200001,1978.6468625000016,,,,1978.6567677999992,1978.6663735000002,1978.6663735000002,1978.712295199999,1978.7125387000015,1978.7288702000005,1978.7288702000005,1978.7288702000005,1978.8124218999983,1979.095943100001,,,,,,,,up,1.909450700000889,None,space,0.3587580999992497,None,,,,,,,,,,,,,,,,,P145,001,2025-04-09_13h30.19.096,posner_endo_new1,2024.2.4,60.05980755598519,2025-04-09 13h30.25.110525 +0100,
cube_r.png,0.1,-0.31,invalid,48,48,0,up,1.8399715000014112,None,space,0.47672310000052676,None,,,,,0,48,48,48,,,,,1979.1118367000017,,,,,,,,,,,,,1979.096125600001,1979.1118367000017,1979.1118367000017,1979.1118367000017,1980.9607619000017,,,,1980.967302699999,1980.9790637000006,1980.9790637000006,1981.0267338999984,1981.0269700999997,1981.0432535,1981.0432535,1981.0432535,1981.1097721000006,1981.5267931999988,,,,,,,,up,1.8399715000014112,None,space,0.47672310000052676,None,,,,,,,,,,,,,,,,,P145,001,2025-04-09_13h30.19.096,posner_endo_new1,2024.2.4,60.05980755598519,2025-04-09 13h30.25.110525 +0100,
cube_r.png,0.1,10,catch,49,49,0,up,1.6896009999982198,None,None,,,,,,,0,49,49,49,,,,,1981.5427242000005,,,,,,,,,,,,,1981.5269765999983,1981.5427242000005,1981.5427242000005,1981.5427242000005,1983.2416973,,,,1983.2483065000015,1983.2601794000002,1983.2601794000002,1983.3080362,1983.308271599999,1983.3241189,1983.3241189,1983.3241189,1983.390930900001,1986.321598800001,,,,1985.4055898000006,1986.3378080000002,1986.3378080000002,1986.3378080000002,up,1.6896009999982198,None,None,,,,,,,,,,,,,,,,,,,P145,001,2025-04-09_13h30.19.096,posner_endo_new1,2024.2.4,60.05980755598519,2025-04-09 13h30.25.110525 +0100,
cube_l.png,0.1,-0.31,valid,50,50,0,up,1.6062818999998854,None,space,0.4344864000013331,None,,,,,0,50,50,50,,,,,1986.3378080000002,,,,,,,,,,,,,1986.3217699999987,1986.3378080000002,1986.3378080000002,1986.3378080000002,1987.953644000001,,,,1987.9602182000017,1987.9720316999992,1987.9720316999992,1988.019548799999,1988.019795600001,1988.0361217999998,1988.0361217999998,1988.0361217999998,1988.1027938000007,1988.486389900001,,,,,,,,up,1.6062818999998854,None,space,0.4344864000013331,None,,,,,,,,,,,,,,,,,P145,001,2025-04-09_13h30.19.096,posner_endo_new1,2024.2.4,60.05980755598519,2025-04-09 13h30.25.110525 +0100,
cube_l.png,0.1,-0.31,valid,51,51,0,up,1.8184259999979986,None,space,0.4474902999972983,None,,,,,0,51,51,51,,,,,1988.5022673999993,,,,,,,,,,,,,1988.4865735999992,1988.5022673999993,1988.5022673999993,1988.5022673999993,1990.3345838999994,,,,1990.3412018000017,1990.352981,1990.352981,1990.4004434000017,1990.4006784000012,1990.416973899999,1990.416973899999,1990.416973899999,1990.500246399999,1990.867320199999,,,,,,,,up,1.8184259999979986,None,space,0.4474902999972983,None,,,,,,,,,,,,,,,,,P145,001,2025-04-09_13h30.19.096,posner_endo_new1,2024.2.4,60.05980755598519,2025-04-09 13h30.25.110525 +0100,
cube_r.png,0.1,-0.31,invalid,52,52,0,up,1.7407101999997394,None,space,0.5243107999995118,None,,,,,0,52,52,52,,,,,1990.8833063999991,,,,,,,,,,,,,1990.8675048000005,1990.8833063999991,1990.8833063999991,1990.8833063999991,1992.6318796000014,,,,1992.6385225000013,1992.6502746000006,1992.6502746000006,1992.6979835999991,1992.6982269,1992.7146676000011,1992.7146676000011,1992.7146676000011,1992.7812262000007,1993.248144000001,,,,,,,,up,1.7407101999997394,None,space,0.5243107999995118,None,,,,,,,,,,,,,,,,,P145,001,2025-04-09_13h30.19.096,posner_endo_new1,2024.2.4,60.05980755598519,2025-04-09 13h30.25.110525 +0100,
cube_l.png,0.1,-0.31,valid,53,53,0,up,1.7763875999989978,None,space,0.4344311999993806,None,,,,,0,53,53,53,,,,,1993.2640605000015,,,,,,,,,,,,,1993.2483270000012,1993.2640605000015,1993.2640605000015,1993.2640605000015,1995.046411899999,,,,1995.053014699999,1995.0648871000012,1995.0648871000012,1995.1122228999993,1995.1124592999986,1995.1287587000006,1995.1287587000006,1995.1287587000006,1995.1954804000015,1995.5791572999988,,,,,,,,up,1.7763875999989978,None,space,0.4344311999993806,None,,,,,,,,,,,,,,,,,P145,001,2025-04-09_13h30.19.096,posner_endo_new1,2024.2.4,60.05980755598519,2025-04-09 13h30.25.110525 +0100,
cube_r.png,0.1,10,catch,54,54,0,up,1.6775095999983023,None,None,,,,,,,0,54,54,54,,,,,1995.595111499999,,,,,,,,,,,,,1995.5793464999988,1995.595111499999,1995.595111499999,1995.595111499999,1997.277449199999,,,,1997.2840407000003,1997.2957523000005,1997.2957523000005,1997.3433804000015,1997.3436168000007,1997.3598066999984,1997.3598066999984,1997.3598066999984,1997.4265508999997,2000.3573628999984,,,,1999.4411016999984,2000.373541699999,2000.373541699999,2000.373541699999,up,1.6775095999983023,None,None,,,,,,,,,,,,,,,,,,,P145,001,2025-04-09_13h30.19.096,posner_endo_new1,2024.2.4,60.05980755598519,2025-04-09 13h30.25.110525 +0100,
cube_l.png,0.1,0.31,invalid,55,55,0,up,2.24312700000155,None,space,0.4861635999986902,None,,,,,0,55,55,55,,,,,2000.373541699999,,,,,,,,,,,,,2000.3575308,2000.373541699999,2000.373541699999,2000.373541699999,2002.6219042999983,,,,2002.6285269,2002.6403628000007,2002.6403628000007,2002.6879616000006,2002.6881987999986,2002.7045674,2002.7045674,2002.7045674,2002.7710240999986,2003.2046827000013,,,,,,,,up,2.24312700000155,None,space,0.4861635999986902,None,,,,,,,,,,,,,,,,,P145,001,2025-04-09_13h30.19.096,posner_endo_new1,2024.2.4,60.05980755598519,2025-04-09 13h30.25.110525 +0100,
cube_l.png,0.1,-0.31,valid,56,56,0,up,3.571663800001261,None,space,0.4160216999989643,None,,,,,0,56,56,56,,,,,2003.2206776999992,,,,,,,,,,,,,2003.204866,2003.2206776999992,2003.2206776999992,2003.2206776999992,2006.8009456,,,,2006.8075480000007,2006.8193525999995,2006.8193525999995,2006.867068200001,2006.8672920999998,2006.8835188000012,2006.8835188000012,2006.8835188000012,2006.9499405999995,2007.3006069000003,,,,,,,,up,3.571663800001261,None,space,0.4160216999989643,None,,,,,,,,,,,,,,,,,P145,001,2025-04-09_13h30.19.096,posner_endo_new1,2024.2.4,60.05980755598519,2025-04-09 13h30.25.110525 +0100,
cube_r.png,0.1,0.31,valid,57,57,0,up,3.6035675999992236,None,space,0.42758490000051097,None,,,,,0,57,57,57,,,,,2007.3165324000001,,,,,,,,,,,,,2007.3007819999984,2007.3165324000001,2007.3165324000001,2007.3165324000001,2010.9300363000002,,,,2010.9357530000016,2010.9474085000002,2010.9474085000002,2010.9961449000002,2010.9963657000008,2011.012605,2011.012605,2011.012605,2011.0792567999997,2011.4462062999992,,,,,,,,up,3.6035675999992236,None,space,0.42758490000051097,None,,,,,,,,,,,,,,,,,P145,001,2025-04-09_13h30.19.096,posner_endo_new1,2024.2.4,60.05980755598519,2025-04-09 13h30.25.110525 +0100,
cube_r.png,0.1,-0.31,invalid,58,58,0,up,4.002389699999185,None,space,0.5047062000012374,None,,,,,0,58,58,58,,,,,2011.4623189999984,,,,,,,,,,,,,2011.4463759999999,2011.4623189999984,2011.4623189999984,2011.4623189999984,2015.4754285999988,,,,2015.4811778000003,2015.492800600001,2015.492800600001,2015.5414840999983,2015.5417086999987,2015.5580564999982,2015.5580564999982,2015.5580564999982,2015.6244831000004,2016.0749051999992,,,,,,,,up,4.002389699999185,None,space,0.5047062000012374,None,,,,,,,,,,,,,,,,,P145,001,2025-04-09_13h30.19.096,posner_endo_new1,2024.2.4,60.05980755598519,2025-04-09 13h30.25.110525 +0100,
cube_l.png,0.1,0.31,invalid,59,59,0,up,6.717917300000408,None,space,0.4420245999972394,None,,,,,0,59,59,59,,,,,2016.0906933000006,,,,,,,,,,,,,2016.0750754,2016.0906933000006,2016.0906933000006,2016.0906933000006,2022.8178704999991,,,,2022.8236136999985,2022.8353739000013,2022.8353739000013,2022.8839062000006,2022.8841304000016,2022.9004343999986,2022.9004343999986,2022.9004343999986,2022.9671063999995,2023.3506553000007,,,,,,,,up,6.717917300000408,None,space,0.4420245999972394,None,,,,,,,,,,,,,,,,,P145,001,2025-04-09_13h30.19.096,posner_endo_new1,2024.2.4,60.05980755598519,2025-04-09 13h30.25.110525 +0100,
,,,,,,,,,,,,,,,,,,,,,,,,,,,,,,,,,,,,,,,,,,,,,,,,,,,,,,,,,,,,,,,,,,,,,,,2023.3507720000016,2023.3664844999985,2023.3664844999985,2083.372043200001,2088.6508300999994,space,65.2825746999988,None,,,,,,,P145,001,2025-04-09_13h30.19.096,posner_endo_new1,2024.2.4,60.05980755598519,2025-04-09 13h30.25.110525 +0100,
,,,,,,,,,,,,,,,,,,,,,,,,,,,,,,,,,,2088.6508876000007,2088.6666713999984,2091.7305678999983,2091.6474579999995,,,,,,,,,,,,,,,,,,,,,,,,,,,,,,,,,,,,,,,,,,,,,,,,P145,001,2025-04-09_13h30.19.096,posner_endo_new1,2024.2.4,60.05980755598519,2025-04-09 13h30.25.110525 +0100,
cube_l.png,0.1,10,catch,0,0,0,down,9.949902500000462,None,None,,,,,,,,,,,0,0,0,0,2091.7305678999983,,,,,,,,,,,,,2091.722303899998,2091.7305678999983,2091.7305678999983,2091.7305678999983,2101.6873766999997,,,,2101.6932536999993,2101.704856799999,2101.704856799999,2101.7534687000007,2101.7537029000014,2101.7699689,2101.7699689,2101.7699689,2101.8365411999985,2104.767306900001,,,,2103.8511222999987,2104.7835497999986,2104.7835497999986,2104.7835497999986,,,,,,,,,,,,,,,,,down,9.949902500000462,None,None,,,P145,001,2025-04-09_13h30.19.096,posner_endo_new1,2024.2.4,60.05980755598519,2025-04-09 13h30.25.110525 +0100,
cube_l.png,0.1,10,catch,1,1,0,down,1.3934289000026183,None,None,,,,,,,,,,,0,1,1,1,2104.7835497999986,,,,,,,,,,,,,2104.767469300001,2104.7835497999986,2104.7835497999986,2104.7835497999986,2106.182855700001,,,,2106.1886264999994,2106.2002622,2106.2002622,2106.2488016999996,2106.2490258,2106.2653820000014,2106.2653820000014,2106.2653820000014,2106.3321160000014,2109.2627286999996,,,,2108.3465689000004,2109.2789889999985,2109.2789889999985,2109.2789889999985,,,,,,,,,,,,,,,,,down,1.3934289000026183,None,None,,,P145,001,2025-04-09_13h30.19.096,posner_endo_new1,2024.2.4,60.05980755598519,2025-04-09 13h30.25.110525 +0100,
cube_l.png,0.1,0.31,invalid,2,2,0,down,5.2490621999968425,None,space,0.4644609999995737,None,,,,,,,,,0,2,2,2,2109.2789889999985,,,,,,,,,,,,,2109.2628917,2109.2789889999985,2109.2789889999985,2109.2789889999985,2114.5408725000016,,,,2114.546637700001,2114.5582372999997,2114.5582372999997,2114.6070136000017,2114.607241400001,2114.6236097,2114.6236097,2114.6236097,2114.6901838000013,2115.090540199999,,,,,,,,,,,,,,,,,,,,,,,,down,5.2490621999968425,None,space,0.4644609999995737,None,P145,001,2025-04-09_13h30.19.096,posner_endo_new1,2024.2.4,60.05980755598519,2025-04-09 13h30.25.110525 +0100,
cube_l.png,0.1,0.31,invalid,3,3,0,down,1.8067759000005026,None,space,0.3704061999997066,None,,,,,,,,,0,3,3,3,2115.1062964999983,,,,,,,,,,,,,2115.0907131999993,2115.1062964999983,2115.1062964999983,2115.1062964999983,2116.921871800001,,,,2116.9276506999995,2116.9392936000004,2116.9392936000004,2116.9878050000007,2116.9880292999987,2117.0044917999985,2117.0044917999985,2117.0044917999985,2117.070978399999,2117.3882961000018,,,,,,,,,,,,,,,,,,,,,,,,down,1.8067759000005026,None,space,0.3704061999997066,None,P145,001,2025-04-09_13h30.19.096,posner_endo_new1,2024.2.4,60.05980755598519,2025-04-09 13h30.25.110525 +0100,
cube_l.png,0.1,-0.31,valid,4,4,0,down,1.9559971000016958,None,space,0.39594489999944926,None,,,,,,,,,0,4,4,4,2117.404069100001,,,,,,,,,,,,,2117.3884690999985,2117.404069100001,2117.404069100001,2117.404069100001,2119.369795300001,,,,2119.3808858999982,2119.391163600001,2119.391163600001,2119.4354749000013,2119.4358208999984,2119.4519108999993,2119.4519108999993,2119.4519108999993,2119.5352568000017,2119.8527754999996,,,,,,,,,,,,,,,,,,,,,,,,down,1.9559971000016958,None,space,0.39594489999944926,None,P145,001,2025-04-09_13h30.19.096,posner_endo_new1,2024.2.4,60.05980755598519,2025-04-09 13h30.25.110525 +0100,
cube_r.png,0.1,-0.31,invalid,5,5,0,down,1.9088140999992902,None,space,0.4714960000019346,None,,,,,,,,,0,5,5,5,2119.8681810999988,,,,,,,,,,,,,2119.8530667999985,2119.8681810999988,2119.8681810999988,2119.8681810999988,2121.7841062000007,,,,2121.795139499998,2121.8055029999996,2121.8055029999996,2121.8496216999993,2121.8499696,2121.8661366999986,2121.8661366999986,2121.8661366999986,2121.949371499999,2122.350181500002,,,,,,,,,,,,,,,,,,,,,,,,down,1.9088140999992902,None,space,0.4714960000019346,None,P145,001,2025-04-09_13h30.19.096,posner_endo_new1,2024.2.4,60.05980755598519,2025-04-09 13h30.25.110525 +0100,
cube_r.png,0.1,0.31,valid,6,6,0,down,1.5313959999984945,None,space,0.3310061999982281,None,,,,,,,,,0,6,6,6,2122.3654892999984,,,,,,,,,,,,,2122.350474300001,2122.3654892999984,2122.3654892999984,2122.3654892999984,2123.8988709000005,,,,2123.9097908000003,2123.9201894,2123.9201894,2123.9642443999983,2123.9645864999984,2123.9806541,2123.9806541,2123.9806541,2124.0640083,2124.3148236999987,,,,,,,,,,,,,,,,,,,,,,,,down,1.5313959999984945,None,space,0.3310061999982281,None,P145,001,2025-04-09_13h30.19.096,posner_endo_new1,2024.2.4,60.05980755598519,2025-04-09 13h30.25.110525 +0100,
cube_r.png,0.1,-0.31,invalid,7,7,0,down,1.6624107000025106,None,space,0.3978443000014522,None,,,,,,,,,0,7,7,7,2124.3302557999996,,,,,,,,,,,,,2124.3151179999986,2124.3302557999996,2124.3302557999996,2124.3302557999996,2125.9966663000014,,,,2126.0075375000015,2126.0178368999987,2126.0178368999987,2126.0620562000004,2126.0624003999983,2126.0785351999984,2126.0785351999984,2126.0785351999984,2126.1618385,2126.4792955999983,,,,,,,,,,,,,,,,,,,,,,,,down,1.6624107000025106,None,space,0.3978443000014522,None,P145,001,2025-04-09_13h30.19.096,posner_endo_new1,2024.2.4,60.05980755598519,2025-04-09 13h30.25.110525 +0100,
cube_l.png,0.1,-0.31,valid,8,8,0,down,1.8018325999983063,None,space,0.35158510000110255,None,,,,,,,,,0,8,8,8,2126.4948191000003,,,,,,,,,,,,,2126.4795883000006,2126.4948191000003,2126.4948191000003,2126.4948191000003,2128.311063699999,,,,2128.3220299999994,2128.3322794999985,2128.3322794999985,2128.3763961000004,2128.3767561999994,2128.3928959000004,2128.3928959000004,2128.3928959000004,2128.476069600001,2128.7602883,,,,,,,,,,,,,,,,,,,,,,,,down,1.8018325999983063,None,space,0.35158510000110255,None,P145,001,2025-04-09_13h30.19.096,posner_endo_new1,2024.2.4,60.05980755598519,2025-04-09 13h30.25.110525 +0100,
cube_r.png,0.1,-0.31,invalid,9,9,0,down,4.224635200000193,None,space,0.45616879999943194,None,,,,,,,,,0,9,9,9,2128.7757883000013,,,,,,,,,,,,,2128.7605863999997,2128.7757883000013,2128.7757883000013,2128.7757883000013,2133.0060625000006,,,,2133.0170456999986,2133.027341199999,2133.027341199999,2133.0715864999984,2133.071929400001,2133.0880098000016,2133.0880098000016,2133.0880098000016,2133.1710743000003,2133.5553475000015,,,,,,,,,,,,,,,,,,,,,,,,down,4.224635200000193,None,space,0.45616879999943194,None,P145,001,2025-04-09_13h30.19.096,posner_endo_new1,2024.2.4,60.05980755598519,2025-04-09 13h30.25.110525 +0100,
cube_l.png,0.1,0.31,invalid,10,10,0,down,1.5816027000000759,None,space,0.3933892000022752,None,,,,,,,,,0,10,10,10,2133.5708124999983,,,,,,,,,,,,,2133.5556380000016,2133.5708124999983,2133.5708124999983,2133.5708124999983,2135.1534383,,,,2135.1604291000003,2135.1720786000005,2135.1720786000005,2135.2192563999997,2135.2195046999987,2135.2357673000006,2135.2357673000006,2135.2357673000006,2135.318929199999,2135.6361080999995,,,,,,,,,,,,,,,,,,,,,,,,down,1.5816027000000759,None,space,0.3933892000022752,None,P145,001,2025-04-09_13h30.19.096,posner_endo_new1,2024.2.4,60.05980755598519,2025-04-09 13h30.25.110525 +0100,
cube_r.png,0.1,-0.31,invalid,11,11,0,down,2.276438600001711,None,space,0.42825989999982994,None,,,,,,,,,0,11,11,11,2135.6520643000003,,,,,,,,,,,,,2135.636316,2135.6520643000003,2135.6520643000003,2135.6520643000003,2137.9335157999994,,,,2137.9406958,2137.9521695000003,2137.9521695000003,2137.9996414999987,2137.9998884999986,2138.0162831000016,2138.0162831000016,2138.0162831000016,2138.0830916000014,2138.4499370999984,,,,,,,,,,,,,,,,,,,,,,,,down,2.276438600001711,None,space,0.42825989999982994,None,P145,001,2025-04-09_13h30.19.096,posner_endo_new1,2024.2.4,60.05980755598519,2025-04-09 13h30.25.110525 +0100,
cube_r.png,0.1,0.31,valid,12,12,0,down,1.7996096999995643,None,space,0.7578890000004321,None,,,,,,,,,0,12,12,12,2138.4658525999985,,,,,,,,,,,,,2138.450133800001,2138.4658525999985,2138.4658525999985,2138.4658525999985,2140.2813614000006,,,,2140.288400199999,2140.3002834,2140.3002834,2140.347366599999,2140.3476139000013,2140.363825799999,2140.363825799999,2140.363825799999,2140.430430299999,2141.130446899999,,,,,,,,,,,,,,,,,,,,,,,,down,1.7996096999995643,None,space,0.7578890000004321,None,P145,001,2025-04-09_13h30.19.096,posner_endo_new1,2024.2.4,60.05980755598519,2025-04-09 13h30.25.110525 +0100,
cube_l.png,0.1,10,catch,13,13,0,down,1.3026069999978063,None,None,,,,,,,,,,,0,13,13,13,2141.146359800001,,,,,,,,,,,,,2141.130644500001,2141.146359800001,2141.146359800001,2141.146359800001,2142.4624380999994,,,,2142.4694784999992,2142.4812777000006,2142.4812777000006,2142.5282958999996,2142.528790100001,2142.5447553000013,2142.5447553000013,2142.5447553000013,2142.6280536999984,2145.542709000001,,,,2144.6428148000014,2145.558707100001,2145.558707100001,2145.558707100001,,,,,,,,,,,,,,,,,down,1.3026069999978063,None,None,,,P145,001,2025-04-09_13h30.19.096,posner_endo_new1,2024.2.4,60.05980755598519,2025-04-09 13h30.25.110525 +0100,
cube_r.png,0.1,-0.31,invalid,14,14,0,down,1.8829344000005221,None,space,0.33800650000193855,None,,,,,,,,,0,14,14,14,2145.558707100001,,,,,,,,,,,,,2145.5429909999984,2145.558707100001,2145.558707100001,2145.558707100001,2147.4578217000017,,,,2147.4673207999986,2147.477119899999,2147.477119899999,2147.5233885999987,2147.5236270999994,2147.5399101000003,2147.5399101000003,2147.5399101000003,2147.6231426000013,2147.8903925000013,,,,,,,,,,,,,,,,,,,,,,,,down,1.8829344000005221,None,space,0.33800650000193855,None,P145,001,2025-04-09_13h30.19.096,posner_endo_new1,2024.2.4,60.05980755598519,2025-04-09 13h30.25.110525 +0100,
cube_l.png,0.1,-0.31,valid,15,15,0,down,2.0142271000004257,None,space,0.43448669999997946,None,,,,,,,,,0,15,15,15,2147.906110600001,,,,,,,,,,,,,2147.890578899998,2147.906110600001,2147.906110600001,2147.906110600001,2149.921586100001,,,,2149.928242000002,2149.9400000999995,2149.9400000999995,2149.987567299999,2149.987813399999,2150.0039405999996,2150.0039405999996,2150.0039405999996,2150.0706385999983,2150.4547064,,,,,,,,,,,,,,,,,,,,,,,,down,2.0142271000004257,None,space,0.43448669999997946,None,P145,001,2025-04-09_13h30.19.096,posner_endo_new1,2024.2.4,60.05980755598519,2025-04-09 13h30.25.110525 +0100,
cube_r.png,0.1,10,catch,16,16,0,down,1.8101811000015005,None,space,0.2875923999999941,None,,,,,,,,,0,16,16,16,2150.4700301999983,,,,,,,,,,,,,2150.4548926999996,2150.4700301999983,2150.4700301999983,2150.4700301999983,2152.2857756999983,,,,2152.2923526999984,2152.3042279,2152.3042279,2152.351845199999,2152.3520697999993,2152.3684297,2152.3684297,2152.3684297,2152.4350296999983,2152.6687772000005,,,,,,,,,,,,,,,,,,,,,,,,down,1.8101811000015005,None,space,0.2875923999999941,None,P145,001,2025-04-09_13h30.19.096,posner_endo_new1,2024.2.4,60.05980755598519,2025-04-09 13h30.25.110525 +0100,
cube_r.png,0.1,10,catch,17,17,0,down,1.6118181999991066,None,None,,,,,,,,,,,0,17,17,17,2152.6847984999986,,,,,,,,,,,,,2152.6689515,2152.6847984999986,2152.6847984999986,2152.6847984999986,2154.3003347000013,,,,2154.3060511000003,2154.3175735000004,2154.3175735000004,2154.366469299999,2154.3666951000014,2154.3829546000015,2154.3829546000015,2154.3829546000015,2154.449096600001,2157.380331600001,,,,2156.464175199999,2157.3965922999996,2157.3965922999996,2157.3965922999996,,,,,,,,,,,,,,,,,down,1.6118181999991066,None,None,,,P145,001,2025-04-09_13h30.19.096,posner_endo_new1,2024.2.4,60.05980755598519,2025-04-09 13h30.25.110525 +0100,
cube_l.png,0.1,0.31,invalid,18,18,0,down,4.89235799999733,None,space,0.5007412999984808,None,,,,,,,,,0,18,18,18,2157.3965922999996,,,,,,,,,,,,,2157.3804973000006,2157.3965922999996,2157.3965922999996,2157.3965922999996,2162.2924015999997,,,,2162.298243699999,2162.310298100001,2162.310298100001,2162.3581507000017,2162.3583824000016,2162.3748706000006,2162.3748706000006,2162.3748706000006,2162.4413429999986,2162.8915080000006,,,,,,,,,,,,,,,,,,,,,,,,down,4.89235799999733,None,space,0.5007412999984808,None,P145,001,2025-04-09_13h30.19.096,posner_endo_new1,2024.2.4,60.05980755598519,2025-04-09 13h30.25.110525 +0100,
cube_l.png,0.1,10,catch,19,19,0,down,2.8211790999994264,None,None,,,,,,,,,,,0,19,19,19,2162.9075301999983,,,,,,,,,,,,,2162.8916804,2162.9075301999983,2162.9075301999983,2162.9075301999983,2165.7385686999987,,,,2165.7443559999992,2165.7561083,2165.7561083,2165.8047401000003,2165.8049632,2165.8211370999998,2165.8211370999998,2165.8211370999998,2165.8879033999983,2168.8186705000007,,,,2167.9023509,2168.8349528,2168.8349528,2168.8349528,,,,,,,,,,,,,,,,,down,2.8211790999994264,None,None,,,P145,001,2025-04-09_13h30.19.096,posner_endo_new1,2024.2.4,60.05980755598519,2025-04-09 13h30.25.110525 +0100,
cube_l.png,0.1,0.31,invalid,20,20,0,down,3.286167900001601,None,space,0.4748005000001285,None,,,,,,,,,0,20,20,20,2168.8349528,,,,,,,,,,,,,2168.8188388000017,2168.8349528,2168.8349528,2168.8349528,2172.132134700001,,,,2172.1380143999995,2172.1496837000013,2172.1496837000013,2172.198070999999,2172.198576999999,2172.2144590999997,2172.2144590999997,2172.2144590999997,2172.281361000001,2172.6988380000003,,,,,,,,,,,,,,,,,,,,,,,,down,3.286167900001601,None,space,0.4748005000001285,None,P145,001,2025-04-09_13h30.19.096,posner_endo_new1,2024.2.4,60.05980755598519,2025-04-09 13h30.25.110525 +0100,
cube_l.png,0.1,-0.31,valid,21,21,0,down,1.598014700000931,None,space,0.36222859999907087,None,,,,,,,,,0,21,21,21,2172.714267700001,,,,,,,,,,,,,2172.6991352000005,2172.714267700001,2172.714267700001,2172.714267700001,2174.313852700001,,,,2174.3248501999988,2174.335201400001,2174.335201400001,2174.3794138999983,2174.3797578999984,2174.3959017000016,2174.3959017000016,2174.3959017000016,2174.4790543000017,2174.763242500001,,,,,,,,,,,,,,,,,,,,,,,,down,1.598014700000931,None,space,0.36222859999907087,None,P145,001,2025-04-09_13h30.19.096,posner_endo_new1,2024.2.4,60.05980755598519,2025-04-09 13h30.25.110525 +0100,
cube_r.png,0.1,0.31,valid,22,22,0,down,1.9894308000002638,None,space,0.5098867999986396,None,,,,,,,,,0,22,22,22,2174.7787892000015,,,,,,,,,,,,,2174.7635397000013,2174.7787892000015,2174.7787892000015,2174.7787892000015,2176.7780273999997,,,,2176.7890388999986,2176.7992508999996,2176.7992508999996,2176.8435357000017,2176.8438773000016,2176.8599945999995,2176.8599945999995,2176.8599945999995,2176.9434441999983,2177.3774004000006,,,,,,,,,,,,,,,,,,,,,,,,down,1.9894308000002638,None,space,0.5098867999986396,None,P145,001,2025-04-09_13h30.19.096,posner_endo_new1,2024.2.4,60.05980755598519,2025-04-09 13h30.25.110525 +0100,
cube_r.png,0.1,-0.31,invalid,23,23,0,down,2.5998561999986123,None,space,0.42533739999998943,None,,,,,,,,,0,23,23,23,2177.3927786999993,,,,,,,,,,,,,2177.3776995000007,2177.3927786999993,2177.3927786999993,2177.3927786999993,2180.0080511000015,,,,2180.0174264999987,2180.0271208999984,2180.0271208999984,2180.0735214999986,2180.073758300001,2180.0899839000012,2180.0899839000012,2180.0899839000012,2180.1730964000017,2180.523615099999,,,,,,,,,,,,,,,,,,,,,,,,down,2.5998561999986123,None,space,0.42533739999998943,None,P145,001,2025-04-09_13h30.19.096,posner_endo_new1,2024.2.4,60.05980755598519,2025-04-09 13h30.25.110525 +0100,
cube_r.png,0.1,0.31,valid,24,24,0,down,2.117093400000158,None,space,0.3376361000009638,None,,,,,,,,,0,24,24,24,2180.5397846999986,,,,,,,,,,,,,2180.5238014999995,2180.5397846999986,2180.5397846999986,2180.5397846999986,2182.6714313999983,,,,2182.6780341000012,2182.689835699999,2182.689835699999,2182.7372456999983,2182.7374893999986,2182.7539026999984,2182.7539026999984,2182.7539026999984,2182.8203885000003,2183.1043777999985,,,,,,,,,,,,,,,,,,,,,,,,down,2.117093400000158,None,space,0.3376361000009638,None,P145,001,2025-04-09_13h30.19.096,posner_endo_new1,2024.2.4,60.05980755598519,2025-04-09 13h30.25.110525 +0100,
cube_r.png,0.1,-0.31,invalid,25,25,0,down,1.592583800000284,None,space,0.41171050000048126,None,,,,,,,,,0,25,25,25,2183.120242500001,,,,,,,,,,,,,2183.1045655999988,2183.120242500001,2183.120242500001,2183.120242500001,2184.719507500002,,,,2184.726094400001,2184.7379599000014,2184.7379599000014,2184.785248600001,2184.7854902,2184.8018607999984,2184.8018607999984,2184.8018607999984,2184.8852136999994,2185.2186664,,,,,,,,,,,,,,,,,,,,,,,,down,1.592583800000284,None,space,0.41171050000048126,None,P145,001,2025-04-09_13h30.19.096,posner_endo_new1,2024.2.4,60.05980755598519,2025-04-09 13h30.25.110525 +0100,
cube_l.png,0.1,-0.31,valid,26,26,0,down,1.6540286999988894,None,space,0.353394699999626,None,,,,,,,,,0,26,26,26,2185.234725999999,,,,,,,,,,,,,2185.2188595000007,2185.234725999999,2185.234725999999,2185.234725999999,2186.9004169,,,,2186.907050400001,2186.918768399999,2186.918768399999,2186.9664709999997,2186.9666976000008,2186.9829600999983,2186.9829600999983,2186.9829600999983,2187.0493964000016,2187.3500547000003,,,,,,,,,,,,,,,,,,,,,,,,down,1.6540286999988894,None,space,0.353394699999626,None,P145,001,2025-04-09_13h30.19.096,posner_endo_new1,2024.2.4,60.05980755598519,2025-04-09 13h30.25.110525 +0100,
cube_r.png,0.1,0.31,valid,27,27,0,down,1.6188322999987577,None,space,0.42743069999778527,None,,,,,,,,,0,27,27,27,2187.3658894,,,,,,,,,,,,,2187.3502276,2187.3658894,2187.3658894,2187.3658894,2188.9983337000012,,,,2189.0041162999987,2189.0157753999993,2189.0157753999993,2189.0642086000007,2189.0644305999995,2189.0809063999986,2189.0809063999986,2189.0809063999986,2189.147391800001,2189.514499500001,,,,,,,,,,,,,,,,,,,,,,,,down,1.6188322999987577,None,space,0.42743069999778527,None,P145,001,2025-04-09_13h30.19.096,posner_endo_new1,2024.2.4,60.05980755598519,2025-04-09 13h30.25.110525 +0100,
cube_r.png,0.1,10,catch,28,28,0,down,1.5587172999985341,None,None,,,,,,,,,,,0,28,28,28,2189.5303883000015,,,,,,,,,,,,,2189.5146728,2189.5303883000015,2189.5303883000015,2189.5303883000015,2191.0961720000014,,,,2191.101912099999,2191.1137318,2191.1137318,2191.1621086000014,2191.1623303999986,2191.1786901000014,2191.1786901000014,2191.1786901000014,2191.2452685999997,2194.176108200001,,,,2193.2599784999984,2194.1923747,2194.1923747,2194.1923747,,,,,,,,,,,,,,,,,down,1.5587172999985341,None,None,,,P145,001,2025-04-09_13h30.19.096,posner_endo_new1,2024.2.4,60.05980755598519,2025-04-09 13h30.25.110525 +0100,
cube_r.png,0.1,0.31,valid,29,29,0,down,3.825122599999304,None,space,0.44442980000167154,None,,,,,,,,,0,29,29,29,2194.1923747,,,,,,,,,,,,,2194.1762775999996,2194.1923747,2194.1923747,2194.1923747,2198.0226339,,,,2198.0283529000008,2198.0400391000003,2198.0400391000003,2198.0884423999996,2198.0886675,2198.104871399999,2198.104871399999,2198.104871399999,2198.1882607000007,2198.555224399999,,,,,,,,,,,,,,,,,,,,,,,,down,3.825122599999304,None,space,0.44442980000167154,None,P145,001,2025-04-09_13h30.19.096,posner_endo_new1,2024.2.4,60.05980755598519,2025-04-09 13h30.25.110525 +0100,
cube_r.png,0.1,0.31,valid,30,30,0,down,1.8936334000027273,None,space,0.49422169999888865,None,,,,,,,,,0,30,30,30,2198.5709895,,,,,,,,,,,,,2198.5553994,2198.5709895,2198.5709895,2198.5709895,2200.4700981999995,,,,2200.4758815999994,2200.4875638999983,2200.4875638999983,2200.5358914999997,2200.536117200001,2200.552601399999,2200.552601399999,2200.552601399999,2200.635631000001,2201.0525560999995,,,,,,,,,,,,,,,,,,,,,,,,down,1.8936334000027273,None,space,0.49422169999888865,None,P145,001,2025-04-09_13h30.19.096,posner_endo_new1,2024.2.4,60.05980755598519,2025-04-09 13h30.25.110525 +0100,
cube_l.png,0.1,-0.31,valid,31,31,0,down,1.612391700000444,None,space,0.42384540000057314,None,,,,,,,,,0,31,31,31,2201.068639199999,,,,,,,,,,,,,2201.0527291,2201.068639199999,2201.068639199999,2201.068639199999,2202.6845749999993,,,,2202.6902996999997,2202.7020287000014,2202.7020287000014,2202.7501892,2202.7504124000006,2202.766803999999,2202.766803999999,2202.766803999999,2202.850155600001,2203.2003783,,,,,,,,,,,,,,,,,,,,,,,,down,1.612391700000444,None,space,0.42384540000057314,None,P145,001,2025-04-09_13h30.19.096,posner_endo_new1,2024.2.4,60.05980755598519,2025-04-09 13h30.25.110525 +0100,
cube_r.png,0.1,0.31,valid,32,32,0,down,1.5123463999989326,None,space,0.3922552999974869,None,,,,,,,,,0,32,32,32,2203.2163366999994,,,,,,,,,,,,,2203.2005666000005,2203.2163366999994,2203.2163366999994,2203.2163366999994,2204.732252599999,,,,2204.7380543,2204.7495896,2204.7495896,2204.7982202999992,2204.7987579,2204.814661299999,2204.814661299999,2204.814661299999,2204.897866700001,2205.2161522999995,,,,,,,,,,,,,,,,,,,,,,,,down,1.5123463999989326,None,space,0.3922552999974869,None,P145,001,2025-04-09_13h30.19.096,posner_endo_new1,2024.2.4,60.05980755598519,2025-04-09 13h30.25.110525 +0100,
cube_r.png,0.1,-0.31,invalid,33,33,0,down,1.593462400000135,None,space,0.4273640000028536,None,,,,,,,,,0,33,33,33,2205.230909599999,,,,,,,,,,,,,2205.216629899998,2205.230909599999,2205.230909599999,2205.230909599999,2206.8313108,,,,2206.8490346,2206.860280699999,2206.860280699999,2206.8960356999996,2206.8963848999992,2206.9126352999992,2206.9126352999992,2206.9126352999992,2206.9958689000014,2207.346746200001,,,,,,,,,,,,,,,,,,,,,,,,down,1.593462400000135,None,space,0.4273640000028536,None,P145,001,2025-04-09_13h30.19.096,posner_endo_new1,2024.2.4,60.05980755598519,2025-04-09 13h30.25.110525 +0100,
cube_r.png,0.1,10,catch,34,34,0,down,1.863760700001876,None,None,,,,,,,,,,,0,34,34,34,2207.3621356000003,,,,,,,,,,,,,2207.3470435000017,2207.3621356000003,2207.3621356000003,2207.3621356000003,2209.228275900001,,,,2209.2380564000014,2209.247709700001,2209.247709700001,2209.2936477000003,2209.293894999999,2209.3104991,2209.3104991,2209.3104991,2209.3934335000013,2212.3075587999992,,,,2211.4079611999987,2212.3237095000004,2212.3237095000004,2212.3237095000004,,,,,,,,,,,,,,,,,down,1.863760700001876,None,None,,,P145,001,2025-04-09_13h30.19.096,posner_endo_new1,2024.2.4,60.05980755598519,2025-04-09 13h30.25.110525 +0100,
cube_r.png,0.1,0.31,valid,35,35,0,down,4.132864699997299,None,space,0.45072390000132145,None,,,,,,,,,0,35,35,35,2212.3237095000004,,,,,,,,,,,,,2212.307751199998,2212.3237095000004,2212.3237095000004,2212.3237095000004,2216.470200399999,,,,2216.4772873,2216.489119499998,2216.489119499998,2216.5361414,2216.5363966000004,2216.5528335000017,2216.5528335000017,2216.5528335000017,2216.636100399999,2217.019749700001,,,,,,,,,,,,,,,,,,,,,,,,down,4.132864699997299,None,space,0.45072390000132145,None,P145,001,2025-04-09_13h30.19.096,posner_endo_new1,2024.2.4,60.05980755598519,2025-04-09 13h30.25.110525 +0100,
cube_r.png,0.1,-0.31,invalid,36,36,0,down,3.9895460000007006,None,space,0.4252836000014213,None,,,,,,,,,0,36,36,36,2217.0355439000014,,,,,,,,,,,,,2217.0199489000006,2217.0355439000014,2217.0355439000014,2217.0355439000014,2221.0322357000005,,,,2221.039276700001,2221.0510630999997,2221.0510630999997,2221.098113600001,2221.0986274999996,2221.1145503000007,2221.1145503000007,2221.1145503000007,2221.181408100001,2221.5489036,,,,,,,,,,,,,,,,,,,,,,,,down,3.9895460000007006,None,space,0.4252836000014213,None,P145,001,2025-04-09_13h30.19.096,posner_endo_new1,2024.2.4,60.05980755598519,2025-04-09 13h30.25.110525 +0100,
cube_l.png,0.1,0.31,invalid,37,37,0,down,1.8206310999994457,None,space,0.5126272999987123,None,,,,,,,,,0,37,37,37,2221.5643720000007,,,,,,,,,,,,,2221.549194200001,2221.5643720000007,2221.5643720000007,2221.5643720000007,2223.396931899999,,,,2223.407984900001,2223.4182618999985,2223.4182618999985,2223.4625688000015,2223.4629200000018,2223.4791078000017,2223.4791078000017,2223.4791078000017,2223.5622828000014,2223.9963750999996,,,,,,,,,,,,,,,,,,,,,,,,down,1.8206310999994457,None,space,0.5126272999987123,None,P145,001,2025-04-09_13h30.19.096,posner_endo_new1,2024.2.4,60.05980755598519,2025-04-09 13h30.25.110525 +0100,
cube_l.png,0.1,0.31,invalid,38,38,0,down,1.5650143000020762,None,space,0.42318359999990207,None,,,,,,,,,0,38,38,38,2224.0119156,,,,,,,,,,,,,2223.9966816000015,2224.0119156,2224.0119156,2224.0119156,2225.5783327999998,,,,2225.587886699999,2225.5976134999983,2225.5976134999983,2225.643601399999,2225.643837899999,2225.6602002,2225.6602002,2225.6602002,2225.7434586000018,2226.093622299999,,,,,,,,,,,,,,,,,,,,,,,,down,1.5650143000020762,None,space,0.42318359999990207,None,P145,001,2025-04-09_13h30.19.096,posner_endo_new1,2024.2.4,60.05980755598519,2025-04-09 13h30.25.110525 +0100,
cube_r.png,0.1,0.31,valid,39,39,0,down,1.8190888000026462,None,space,0.40070859999832464,None,,,,,,,,,0,39,39,39,2226.1096937,,,,,,,,,,,,,2226.093817500001,2226.1096937,2226.1096937,2226.1096937,2227.941894399999,,,,2227.9486030000007,2227.9603658000015,2227.9603658000015,2228.0078084000015,2228.0080299,2228.0245294999986,2228.0245294999986,2228.0245294999986,2228.0909637000004,2228.4414542000013,,,,,,,,,,,,,,,,,,,,,,,,down,1.8190888000026462,None,space,0.40070859999832464,None,P145,001,2025-04-09_13h30.19.096,posner_endo_new1,2024.2.4,60.05980755598519,2025-04-09 13h30.25.110525 +0100,
cube_l.png,0.1,0.31,invalid,40,40,0,down,1.8631417999968107,None,space,0.42156230000182404,None,,,,,,,,,0,40,40,40,2228.4575170999997,,,,,,,,,,,,,2228.441629699999,2228.4575170999997,2228.4575170999997,2228.4575170999997,2230.322800099999,,,,2230.3284645999993,2230.3400736000003,2230.3400736000003,2230.388707099999,2230.3889290000006,2230.4052708000017,2230.4052708000017,2230.4052708000017,2230.4885079999985,2230.8388564000015,,,,,,,,,,,,,,,,,,,,,,,,down,1.8631417999968107,None,space,0.42156230000182404,None,P145,001,2025-04-09_13h30.19.096,posner_endo_new1,2024.2.4,60.05980755598519,2025-04-09 13h30.25.110525 +0100,
cube_l.png,0.1,10,catch,41,41,0,down,1.6586384000002,None,None,,,,,,,,,,,0,41,41,41,2230.8548975999984,,,,,,,,,,,,,2230.839040300001,2230.8548975999984,2230.8548975999984,2230.8548975999984,2232.520496199999,,,,2232.5262675999984,2232.538029399999,2232.538029399999,2232.586435099998,2232.5866647000003,2232.6029869000013,2232.6029869000013,2232.6029869000013,2232.6697367000015,2235.6005129000005,,,,2234.684218300001,2235.6166913999987,2235.6166913999987,2235.6166913999987,,,,,,,,,,,,,,,,,down,1.6586384000002,None,None,,,P145,001,2025-04-09_13h30.19.096,posner_endo_new1,2024.2.4,60.05980755598519,2025-04-09 13h30.25.110525 +0100,
cube_l.png,0.1,-0.31,valid,42,42,0,down,2.240161599998828,None,space,0.4451879000007466,None,,,,,,,,,0,42,42,42,2235.6166913999987,,,,,,,,,,,,,2235.6006750999986,2235.6166913999987,2235.6166913999987,2235.6166913999987,2237.8648706999993,,,,2237.8706506000017,2237.882407699999,2237.882407699999,2237.9310398999987,2237.931259699999,2237.947645600001,2237.947645600001,2237.947645600001,2238.0143652000006,2238.3980238000004,,,,,,,,,,,,,,,,,,,,,,,,down,2.240161599998828,None,space,0.4451879000007466,None,P145,001,2025-04-09_13h30.19.096,posner_endo_new1,2024.2.4,60.05980755598519,2025-04-09 13h30.25.110525 +0100,
cube_l.png,0.1,10,catch,43,43,0,down,1.8825362999996287,None,None,,,,,,,,,,,0,43,43,43,2238.4138415000016,,,,,,,,,,,,,2238.398197800001,2238.4138415000016,2238.4138415000016,2238.4138415000016,2240.3130057000017,,,,2240.3190829999985,2240.330694799999,2240.330694799999,2240.378622799999,2240.378853800001,2240.3951481000004,2240.3951481000004,2240.3951481000004,2240.4782796,2243.3923977000013,,,,2242.4930276999985,2243.4086207,2243.4086207,2243.4086207,,,,,,,,,,,,,,,,,down,1.8825362999996287,None,None,,,P145,001,2025-04-09_13h30.19.096,posner_endo_new1,2024.2.4,60.05980755598519,2025-04-09 13h30.25.110525 +0100,
cube_l.png,0.1,0.31,invalid,44,44,0,down,4.584551500000089,None,space,0.4148005999995803,None,,,,,,,,,0,44,44,44,2243.4086207,,,,,,,,,,,,,2243.3925592999985,2243.4086207,2243.4086207,2243.4086207,2248.004667199999,,,,2248.010506499999,2248.022208300001,2248.022208300001,2248.0705737999997,2248.0707963999994,2248.0872304000004,2248.0872304000004,2248.0872304000004,2248.1539545000014,2248.5042410999995,,,,,,,,,,,,,,,,,,,,,,,,down,4.584551500000089,None,space,0.4148005999995803,None,P145,001,2025-04-09_13h30.19.096,posner_endo_new1,2024.2.4,60.05980755598519,2025-04-09 13h30.25.110525 +0100,
cube_l.png,0.1,0.31,invalid,45,45,0,down,1.808355400000437,None,space,0.5060408000026655,None,,,,,,,,,0,45,45,45,2248.5202099999988,,,,,,,,,,,,,2248.5044172000016,2248.5202099999988,2248.5202099999988,2248.5202099999988,2250.3354120000004,,,,2250.341174000001,2250.3526033999988,2250.3526033999988,2250.385455899999,2250.3856693999987,2250.4016206000015,2250.4016206000015,2250.4016206000015,2250.484747300001,2250.9183840000005,,,,,,,,,,,,,,2250.4016206000015,2250.4016206000015,,,,,,,,,down,1.808355400000437,None,space,0.5060408000026655,None,P145,001,2025-04-09_13h30.19.096,posner_endo_new1,2024.2.4,60.05980755598519,2025-04-09 13h30.25.110525 +0100,
cube_r.png,0.1,0.31,valid,46,46,0,down,1.7142985999998928,None,space,0.42055619999882765,None,,,,,,,,,0,46,46,46,2250.9343498000017,,,,,,,,,,,,,2250.9185596999996,2250.9343498000017,2250.9343498000017,2250.9343498000017,2252.650149699999,,,,2252.655866699999,2252.6675462999992,2252.6675462999992,2252.715798000001,2252.7160188999987,2252.7325582999983,2252.7325582999983,2252.7325582999983,2252.8157371000016,2253.1660475999997,,,,,,,,,,,,,,,,,,,,,,,,down,1.7142985999998928,None,space,0.42055619999882765,None,P145,001,2025-04-09_13h30.19.096,posner_endo_new1,2024.2.4,60.05980755598519,2025-04-09 13h30.25.110525 +0100,
cube_l.png,0.1,-0.31,valid,47,47,0,down,1.4666462000022875,None,space,0.6690147000008437,None,,,,,,,,,0,47,47,47,2253.1819982999987,,,,,,,,,,,,,2253.166219999999,2253.1819982999987,2253.1819982999987,2253.1819982999987,2254.6645787000016,,,,2254.670366800001,2254.6820458,2254.6820458,2254.7304864,2254.7307096000004,2254.7471033,2254.7471033,2254.7471033,2254.813605200001,2255.4299208999983,,,,,,,,,,,,,,,,,,,,,,,,down,1.4666462000022875,None,space,0.6690147000008437,None,P145,001,2025-04-09_13h30.19.096,posner_endo_new1,2024.2.4,60.05980755598519,2025-04-09 13h30.25.110525 +0100,
cube_r.png,0.1,-0.31,invalid,48,48,0,down,1.394322000000102,None,space,0.6494521999993594,None,,,,,,,,,0,48,48,48,2255.4460672999994,,,,,,,,,,,,,2255.4301086000014,2255.4460672999994,2255.4460672999994,2255.4460672999994,2256.845654500001,,,,2256.8514351999984,2256.8632115,2256.8632115,2256.9115985999997,2256.9118223000005,2256.9282647,2256.9282647,2256.9282647,2256.9946941000017,2257.5784440999996,,,,,,,,,,,,,,,,,,,,,,,,down,1.394322000000102,None,space,0.6494521999993594,None,P145,001,2025-04-09_13h30.19.096,posner_endo_new1,2024.2.4,60.05980755598519,2025-04-09 13h30.25.110525 +0100,
cube_r.png,0.1,10,catch,49,49,0,down,1.6321621999995841,None,None,,,,,,,,,,,0,49,49,49,2257.5941549000017,,,,,,,,,,,,,2257.578616300001,2257.5941549000017,2257.5941549000017,2257.5941549000017,2259.2432741999983,,,,2259.2490045999984,2259.2603629000005,2259.2603629000005,2259.309425399999,2259.3096498000014,2259.325681999999,2259.325681999999,2259.325681999999,2259.392409100001,2262.3232948000004,,,,2261.4070073000003,2262.3392053999996,2262.3392053999996,2262.3392053999996,,,,,,,,,,,,,,,,,down,1.6321621999995841,None,None,,,P145,001,2025-04-09_13h30.19.096,posner_endo_new1,2024.2.4,60.05980755598519,2025-04-09 13h30.25.110525 +0100,
cube_l.png,0.1,-0.31,valid,50,50,0,down,1.9498666999970737,None,space,0.41618109999762964,None,,,,,,,,,0,50,50,50,2262.3392053999996,,,,,,,,,,,,,2262.3234569999986,2262.3392053999996,2262.3392053999996,2262.3392053999996,2264.3048400000007,,,,2264.310730099998,2264.3217589000014,2264.3217589000014,2264.3705961000014,2264.3710973999987,2264.3870117000006,2264.3870117000006,2264.3870117000006,2264.470270500002,2264.8052543999984,,,,,,,,,,,,,,,,,,,,,,,,down,1.9498666999970737,None,space,0.41618109999762964,None,P145,001,2025-04-09_13h30.19.096,posner_endo_new1,2024.2.4,60.05980755598519,2025-04-09 13h30.25.110525 +0100,
cube_l.png,0.1,-0.31,valid,51,51,0,down,2.3651828999973077,None,space,0.3966529999997874,None,,,,,,,,,0,51,51,51,2264.819946200001,,,,,,,,,,,,,2264.805687100001,2264.819946200001,2264.819946200001,2264.819946200001,2267.2019924999986,,,,2267.2131062000008,2267.2231165999983,2267.2231165999983,2267.2678368000015,2267.2681852999995,2267.2843249,2267.2843249,2267.2843249,2267.367536900001,2267.6849642000016,,,,,,,,,,,,,,,,,,,,,,,,down,2.3651828999973077,None,space,0.3966529999997874,None,P145,001,2025-04-09_13h30.19.096,posner_endo_new1,2024.2.4,60.05980755598519,2025-04-09 13h30.25.110525 +0100,
cube_r.png,0.1,-0.31,invalid,52,52,0,down,1.9255443000001833,None,space,0.510541400002694,None,,,,,,,,,0,52,52,52,2267.7005855999996,,,,,,,,,,,,,2267.6852541000007,2267.7005855999996,2267.7005855999996,2267.7005855999996,2269.6330326999996,,,,2269.6440360999986,2269.6542340000015,2269.6542340000015,2269.6984980999987,2269.6988434000014,2269.7151986999997,2269.7151986999997,2269.7151986999997,2269.798402299999,2270.2325633,,,,,,,,,,,,,,,,,,,,,,,,down,1.9255443000001833,None,space,0.510541400002694,None,P145,001,2025-04-09_13h30.19.096,posner_endo_new1,2024.2.4,60.05980755598519,2025-04-09 13h30.25.110525 +0100,
cube_l.png,0.1,-0.31,valid,53,53,0,down,4.008502399999998,None,space,0.3965773000018089,None,,,,,,,,,0,53,53,53,2270.2480246999985,,,,,,,,,,,,,2270.2328632999997,2270.2480246999985,2270.2480246999985,2270.2480246999985,2274.2618490999994,,,,2274.2729360999983,2274.283348500001,2274.283348500001,2274.3272585999985,2274.3276098999995,2274.3437225999987,2274.3437225999987,2274.3437225999987,2274.427061999999,2274.744703299999,,,,,,,,,,,,,,,,,,,,,,,,down,4.008502399999998,None,space,0.3965773000018089,None,P145,001,2025-04-09_13h30.19.096,posner_endo_new1,2024.2.4,60.05980755598519,2025-04-09 13h30.25.110525 +0100,
cube_r.png,0.1,10,catch,54,54,0,down,1.8884603999977116,None,None,,,,,,,,,,,0,54,54,54,2274.7599353000005,,,,,,,,,,,,,2274.7449935000004,2274.7599353000005,2274.7599353000005,2274.7599353000005,2276.6593098999983,,,,2276.6703877,2276.6806897999995,2276.6806897999995,2276.7248461000017,2276.7251902999997,2276.7414025,2276.7414025,2276.7414025,2276.824579600001,2279.7390086999985,,,,2278.8391591,2279.7549177,2279.7549177,2279.7549177,,,,,,,,,,,,,,,,,down,1.8884603999977116,None,None,,,P145,001,2025-04-09_13h30.19.096,posner_endo_new1,2024.2.4,60.05980755598519,2025-04-09 13h30.25.110525 +0100,
cube_l.png,0.1,0.31,invalid,55,55,0,down,0.47818910000205506,None,space,0.4680125000013504,None,,,,,,,,,0,55,55,55,2279.7549177,,,,,,,,,,,,,2279.7392879,2279.7549177,2279.7549177,2279.7549177,2280.2389608999983,,,,2280.2481288000017,2280.257774400001,2280.257774400001,2280.3044611000005,2280.304713900001,2280.321057000001,2280.321057000001,2280.321057000001,2280.4042212999993,2280.8046934000013,,,,,,,,,,,,,,,,,,,,,,,,down,0.47818910000205506,None,space,0.4680125000013504,None,P145,001,2025-04-09_13h30.19.096,posner_endo_new1,2024.2.4,60.05980755598519,2025-04-09 13h30.25.110525 +0100,
cube_l.png,0.1,-0.31,valid,56,56,0,down,1.8688135000011243,None,space,0.32777510000232724,None,,,,,,,,,0,56,56,56,2280.8203498000003,,,,,,,,,,,,,2280.8048984000015,2280.8203498000003,2280.8203498000003,2280.8203498000003,2282.7027382999986,,,,2282.7094375000015,2282.721213500001,2282.721213500001,2282.768691000001,2282.7689302,2282.7850246999988,2282.7850246999988,2282.7850246999988,2282.868349100001,2283.119058299999,,,,,,,,,,,,,,,,,,,,,,,,down,1.8688135000011243,None,space,0.32777510000232724,None,P145,001,2025-04-09_13h30.19.096,posner_endo_new1,2024.2.4,60.05980755598519,2025-04-09 13h30.25.110525 +0100,
cube_r.png,0.1,0.31,valid,57,57,0,down,2.1379029999989143,None,space,0.2999101999994309,None,,,,,,,,,0,57,57,57,2283.134786800001,,,,,,,,,,,,,2283.1192499999997,2283.134786800001,2283.134786800001,2283.134786800001,2285.283336100001,,,,2285.2899714000014,2285.3017999000003,2285.3017999000003,2285.3494753999985,2285.3497021000003,2285.3658141000014,2285.3658141000014,2285.3658141000014,2285.4324689999994,2285.6664630999985,,,,,,,,,,,,,,,,,,,,,,,,down,2.1379029999989143,None,space,0.2999101999994309,None,P145,001,2025-04-09_13h30.19.096,posner_endo_new1,2024.2.4,60.05980755598519,2025-04-09 13h30.25.110525 +0100,
cube_r.png,0.1,-0.31,invalid,58,58,0,down,2.3745697000013024,None,space,0.3673799999996845,None,,,,,,,,,0,58,58,58,2285.6821851999994,,,,,,,,,,,,,2285.6666387000005,2285.6821851999994,2285.6821851999994,2285.6821851999994,2288.0635396,,,,2288.0692937999993,2288.0808593,2288.0808593,2288.1298484,2288.1300813000016,2288.146398699999,2288.146398699999,2288.146398699999,2288.2128010000015,2288.530048299999,,,,,,,,,,,,,,,,,,,,,,,,down,2.3745697000013024,None,space,0.3673799999996845,None,P145,001,2025-04-09_13h30.19.096,posner_endo_new1,2024.2.4,60.05980755598519,2025-04-09 13h30.25.110525 +0100,
cube_l.png,0.1,0.31,invalid,59,59,0,down,2.198496000000887,None,space,0.36551110000073095,None,,,,,,,,,0,59,59,59,2288.5458862000014,,,,,,,,,,,,,2288.530221699999,2288.5458862000014,2288.5458862000014,2288.5458862000014,2290.7611131000012,,,,2290.7669505000013,2290.7780495000006,2290.7780495000006,2290.8269105,2290.827420900001,2290.8433669000005,2290.8433669000005,2290.8433669000005,2290.9266429000018,2291.2115476,,,,,,,,,,,,,,,,,,,,,,,,down,2.198496000000887,None,space,0.36551110000073095,None,P145,001,2025-04-09_13h30.19.096,posner_endo_new1,2024.2.4,60.05980755598519,2025-04-09 13h30.25.110525 +0100,
