cue_img,cue_soa,target_x,trial,thisN,thisTrialN,thisRepN,key_control2.keys,key_control2.rt,key_control2.duration,key_resp.keys,key_resp.rt,key_resp.duration,practice.thisRepN,practice.thisTrialN,practice.thisN,practice.thisIndex,block1.thisRepN,block1.thisTrialN,block1.thisN,block1.thisIndex,block2.thisRepN,block2.thisTrialN,block2.thisN,block2.thisIndex,thisRow.t,notes,instructions.started,instructions_txt.started,key_control.started,instructions.stopped,key_control.keys,key_control.rt,key_control.duration,ready.started,ready_txt.started,ready_txt.stopped,ready.stopped,fix.started,fixation.started,key_control2.started,fixation_cross.started,fix.stopped,practice.key_control2.keys,practice.key_control2.rt,practice.key_control2.duration,cue.started,cube.started,fixation_cross_cue.started,cue.stopped,target.started,fixation_target.started,fixation_cross_target.started,key_resp.started,star.started,target.stopped,practice.key_resp.keys,practice.key_resp.rt,practice.key_resp.duration,block1.key_control2.keys,block1.key_control2.rt,block1.key_control2.duration,star.stopped,fixation_target.stopped,fixation_cross_target.stopped,key_resp.stopped,block1.key_resp.keys,block1.key_resp.rt,block1.key_resp.duration,break_2.started,text.started,key_control3.started,text.stopped,break_2.stopped,key_control3.keys,key_control3.rt,key_control3.duration,block2.key_control2.keys,block2.key_control2.rt,block2.key_control2.duration,block2.key_resp.keys,block2.key_resp.rt,block2.key_resp.duration,cube.stopped,fixation_cross_cue.stopped,participant,session,date,expName,psychopyVersion,frameRate,expStart,
,,,,,,,,,,,,,,,,,,,,,,,,,,,0.007403300001897151,0.02951749999920139,0.02951749999920139,2046.0495603000018,up,2045.9984921000032,None,,,,,,,,,,,,,,,,,,,,,,,,,,,,,,,,,,,,,,,,,,,,,,,,,,,,P146,001,2025-04-09_14h21.29.838,posner_endo_new1,2024.2.4,60.01359908205119,2025-04-09 14h21.45.898930 +0100,
,,,,,,,,,,,,,,,,,,,,,,,,,,,,,,,,,,2046.0496543000008,2046.061901500001,2049.0697070000024,2049.0407731000014,,,,,,,,,,,,,,,,,,,,,,,,,,,,,,,,,,,,,,,,,,,,,,,,P146,001,2025-04-09_14h21.29.838,posner_endo_new1,2024.2.4,60.01359908205119,2025-04-09 14h21.45.898930 +0100,
cube_l.png,0.1,0.31,invalid,0,0,0,down,17.1335900999984,None,space,0.46911420000105863,None,0,0,0,1,,,,,,,,,2049.0697070000024,,,,,,,,,,,,,2049.054771700001,2049.0697070000024,2049.0697070000024,2049.0697070000024,2066.2064001,down,17.1335900999984,None,2066.2190894000014,2066.229016699999,2066.229016699999,2066.2726036999993,2066.2728288,2066.2890031999996,2066.2890031999996,2066.2890031999996,2066.3556358000023,2066.7725745999996,space,0.46911420000105863,None,,,,,,,,,,,,,,,,,,,,,,,,,,,P146,001,2025-04-09_14h21.29.838,posner_endo_new1,2024.2.4,60.01359908205119,2025-04-09 14h21.45.898930 +0100,
cube_l.png,0.1,-0.31,valid,1,1,0,down,4.7266122000000905,None,space,0.31614489999992657,None,0,1,1,0,,,,,,,,,2066.7885399000006,,,,,,,,,,,,,2066.7727405000005,2066.7885399000006,2066.7885399000006,2066.7885399000006,2071.517754700002,down,4.7266122000000905,None,2071.5237221999996,2071.535212300001,2071.535212300001,2071.583783599999,2071.5840024000026,2071.5998481999995,2071.5998481999995,2071.5998481999995,2071.6665945000022,2071.9174574000026,space,0.31614489999992657,None,,,,,,,,,,,,,,,,,,,,,,,,,,,P146,001,2025-04-09_14h21.29.838,posner_endo_new1,2024.2.4,60.01359908205119,2025-04-09 14h21.45.898930 +0100,
cube_r.png,0.1,10,catch,2,2,0,down,6.326261100002739,None,space,0.2977644999991753,None,0,2,2,3,,,,,,,,,2071.9331980000024,,,,,,,,,,,,,2071.9176192000014,2071.9331980000024,2071.9331980000024,2071.9331980000024,2078.260980400002,down,6.326261100002739,None,2078.266776799999,2078.278288900001,2078.278288900001,2078.3267880999992,2078.327007,2078.3433318000025,2078.3433318000025,2078.3433318000025,2078.4267120000004,2078.643812000002,space,0.2977644999991753,None,,,,,,,,,,,,,,,,,,,,,,,,,,,P146,001,2025-04-09_14h21.29.838,posner_endo_new1,2024.2.4,60.01359908205119,2025-04-09 14h21.45.898930 +0100,
cube_r.png,0.1,-0.31,invalid,3,3,0,down,5.431693800001085,None,space,0.3757407000011881,None,0,3,3,2,,,,,,,,,2078.6597471999994,,,,,,,,,,,,,2078.643979200002,2078.6597471999994,2078.6597471999994,2078.6597471999994,2084.1050533000016,down,5.431693800001085,None,2084.1108507000026,2084.1224992000025,2084.1224992000025,2084.170827400001,2084.171047300002,2084.1874879999996,2084.1874879999996,2084.1874879999996,2084.270558,2084.5708626000014,space,0.3757407000011881,None,,,,,,,,,,,,,,,,,,,,,,,,,,,P146,001,2025-04-09_14h21.29.838,posner_endo_new1,2024.2.4,60.01359908205119,2025-04-09 14h21.45.898930 +0100,
cube_l.png,0.1,-0.31,valid,4,4,0,down,4.22424879999744,None,space,0.33048670000061975,None,0,4,4,4,,,,,,,,,2084.586992299999,,,,,,,,,,,,,2084.571026100002,2084.586992299999,2084.586992299999,2084.586992299999,2088.816926300002,down,4.22424879999744,None,2088.8228032000006,2088.8345401000006,2088.8345401000006,2088.882822300002,2088.8830424000007,2088.8992677999995,2088.8992677999995,2088.8992677999995,2088.9822931000017,2089.2329707000026,space,0.33048670000061975,None,,,,,,,,,,,,,,,,,,,,,,,,,,,P146,001,2025-04-09_14h21.29.838,posner_endo_new1,2024.2.4,60.01359908205119,2025-04-09 14h21.45.898930 +0100,
cube_r.png,0.1,0.31,valid,5,5,0,down,9.242226200000005,None,space,0.37784239999746205,None,0,5,5,7,,,,,,,,,2089.248817800002,,,,,,,,,,,,,2089.2331312000024,2089.248817800002,2089.248817800002,2089.248817800002,2098.5064311000024,down,9.242226200000005,None,2098.5122226999993,2098.5239464000006,2098.5239464000006,2098.572750800002,2098.5729709000007,2098.5894245000018,2098.5894245000018,2098.5894245000018,2098.6560537000005,2098.972923600002,space,0.37784239999746205,None,,,,,,,,,,,,,,,,,,,,,,,,,,,P146,001,2025-04-09_14h21.29.838,posner_endo_new1,2024.2.4,60.01359908205119,2025-04-09 14h21.45.898930 +0100,
cube_r.png,0.1,-0.31,invalid,6,6,0,down,5.1422614000002795,None,space,0.4107832000008784,None,0,6,6,9,,,,,,,,,2098.988997700002,,,,,,,,,,,,,2098.9730928999998,2098.988997700002,2098.988997700002,2098.988997700002,2104.1341663999992,down,5.1422614000002795,None,2104.1399536999998,2104.1514677000014,2104.1514677000014,2104.200261500002,2104.2004842000024,2104.217096100001,2104.217096100001,2104.217096100001,2104.283605700002,2104.6341938000005,space,0.4107832000008784,None,,,,,,,,,,,,,,,,,,,,,,,,,,,P146,001,2025-04-09_14h21.29.838,posner_endo_new1,2024.2.4,60.01359908205119,2025-04-09 14h21.45.898930 +0100,
cube_l.png,0.1,0.31,invalid,7,7,0,down,4.6970485000019835,None,space,0.2958948000014061,None,0,7,7,5,,,,,,,,,2104.649855200001,,,,,,,,,,,,,2104.6343557,2104.649855200001,2104.649855200001,2104.649855200001,2109.3619872000017,down,4.6970485000019835,None,2109.3676909000023,2109.3793587,2109.3793587,2109.4282215999992,2109.4284415,2109.4449219000016,2109.4449219000016,2109.4449219000016,2109.5114613000005,2109.7454510000025,space,0.2958948000014061,None,,,,,,,,,,,,,,,,,,,,,,,,,,,P146,001,2025-04-09_14h21.29.838,posner_endo_new1,2024.2.4,60.01359908205119,2025-04-09 14h21.45.898930 +0100,
cube_r.png,0.1,0.31,valid,8,8,0,down,4.530665099999169,None,space,0.720970699996542,None,0,8,8,10,,,,,,,,,2109.7613028000014,,,,,,,,,,,,,2109.7456119000017,2109.7613028000014,2109.7613028000014,2109.7613028000014,2114.3074022,down,4.530665099999169,None,2114.3131250000006,2114.3248415000016,2114.3248415000016,2114.3730957000007,2114.3733176000023,2114.389951600002,2114.389951600002,2114.389951600002,2114.456322500002,2115.1231985000013,space,0.720970699996542,None,,,,,,,,,,,,,,,,,,,,,,,,,,,P146,001,2025-04-09_14h21.29.838,posner_endo_new1,2024.2.4,60.01359908205119,2025-04-09 14h21.45.898930 +0100,
cube_l.png,0.1,-0.31,valid,9,9,0,down,4.6961324000003515,None,space,0.3079293000009784,None,0,9,9,8,,,,,,,,,2115.1392288000025,,,,,,,,,,,,,2115.123364700001,2115.1392288000025,2115.1392288000025,2115.1392288000025,2119.8517532000005,down,4.6961324000003515,None,2119.8575219000013,2119.8692120000014,2119.8692120000014,2119.9176611000003,2119.9178818,2119.9342410000027,2119.9342410000027,2119.9342410000027,2120.000858700001,2120.2516780000005,space,0.3079293000009784,None,,,,,,,,,,,,,,,,,,,,,,,,,,,P146,001,2025-04-09_14h21.29.838,posner_endo_new1,2024.2.4,60.01359908205119,2025-04-09 14h21.45.898930 +0100,
cube_r.png,0.1,-0.31,invalid,10,10,0,down,4.599288800000068,None,space,0.3968678999990516,None,0,10,10,6,,,,,,,,,2120.2675051000006,,,,,,,,,,,,,2120.2518305000012,2120.2675051000006,2120.2675051000006,2120.2675051000006,2124.8799215,down,4.599288800000068,None,2124.8856855000013,2124.897181200002,2124.897181200002,2124.946090199999,2124.946316400001,2124.9623632000003,2124.9623632000003,2124.9623632000003,2125.028738000001,2125.3628669000027,space,0.3968678999990516,None,,,,,,,,,,,,,,,,,,,,,,,,,,,P146,001,2025-04-09_14h21.29.838,posner_endo_new1,2024.2.4,60.01359908205119,2025-04-09 14h21.45.898930 +0100,
,,,,,,,,,,,,,,,,,,,,,,,,,,,,,,,,,,2125.362977500001,2125.3787217000026,2128.3792083000008,2128.359370500002,,,,,,,,,,,,,,,,,,,,,,,,,,,,,,,,,,,,,,,,,,,,,,,,P146,001,2025-04-09_14h21.29.838,posner_endo_new1,2024.2.4,60.01359908205119,2025-04-09 14h21.45.898930 +0100,
cube_l.png,0.1,10,catch,0,0,0,down,10.456122499999765,None,None,,,,,,,0,0,0,0,,,,,2128.3792083000008,,,,,,,,,,,,,2128.370325,2128.3792083000008,2128.3792083000008,2128.3792083000008,2138.8490389,,,,2138.8548895999993,2138.8664984000025,2138.8664984000025,2138.915179200001,2138.9154030000027,2138.931666700002,2138.931666700002,2138.931666700002,2139.0145365999997,2141.9288448000007,,,,down,10.456122499999765,None,2141.0289410000005,2141.9451869000004,2141.9451869000004,2141.9451869000004,None,,,,,,,,,,,,,,,,,,,P146,001,2025-04-09_14h21.29.838,posner_endo_new1,2024.2.4,60.01359908205119,2025-04-09 14h21.45.898930 +0100,
cube_l.png,0.1,10,catch,1,1,0,down,2.1863066000005347,None,None,,,,,,,0,1,1,1,,,,,2141.9451869000004,,,,,,,,,,,,,2141.9290005000003,2141.9451869000004,2141.9451869000004,2141.9451869000004,2144.1434542000025,,,,2144.1492378000003,2144.1607912,2144.1607912,2144.2095085,2144.209727199999,2144.226158900001,2144.226158900001,2144.226158900001,2144.292492200002,2147.2234898999995,,,,down,2.1863066000005347,None,2146.3073704000017,2147.239491600001,2147.239491600001,2147.239491600001,None,,,,,,,,,,,,,,,,,,,P146,001,2025-04-09_14h21.29.838,posner_endo_new1,2024.2.4,60.01359908205119,2025-04-09 14h21.45.898930 +0100,
cube_l.png,0.1,0.31,invalid,2,2,0,down,2.196251999997912,None,space,0.3619412000007287,None,,,,,0,2,2,2,,,,,2147.239491600001,,,,,,,,,,,,,2147.223647900002,2147.239491600001,2147.239491600001,2147.239491600001,2149.438002499999,,,,2149.4438083999994,2149.4556196000012,2149.4556196000012,2149.5041482000015,2149.5043673,2149.521031700002,2149.521031700002,2149.521031700002,2149.5873168,2149.8877104999992,,,,down,2.196251999997912,None,,,,,space,0.3619412000007287,None,,,,,,,,,,,,,,,,,P146,001,2025-04-09_14h21.29.838,posner_endo_new1,2024.2.4,60.01359908205119,2025-04-09 14h21.45.898930 +0100,
cube_l.png,0.1,0.31,invalid,3,3,0,down,4.411892200001603,None,space,0.5382040000004054,None,,,,,0,3,3,3,,,,,2149.903781600002,,,,,,,,,,,,,2149.8878877999996,2149.903781600002,2149.903781600002,2149.903781600002,2154.3164733000012,,,,2154.3222793999994,2154.334079700002,2154.334079700002,2154.3826042,2154.382827199999,2154.3989961000007,2154.3989961000007,2154.3989961000007,2154.465598400002,2154.9494448000005,,,,down,4.411892200001603,None,,,,,space,0.5382040000004054,None,,,,,,,,,,,,,,,,,P146,001,2025-04-09_14h21.29.838,posner_endo_new1,2024.2.4,60.01359908205119,2025-04-09 14h21.45.898930 +0100,
cube_l.png,0.1,-0.31,valid,4,4,0,down,1.94222660000014,None,space,0.3924092999986897,None,,,,,0,4,4,4,,,,,2154.965175100002,,,,,,,,,,,,,2154.9496154000008,2154.965175100002,2154.965175100002,2154.965175100002,2156.9139329000027,,,,2156.9197176000016,2156.931332,2156.931332,2156.9798555000016,2156.9800732000003,2156.996179900001,2156.996179900001,2156.996179900001,2157.0630805,2157.396563800001,,,,down,1.94222660000014,None,,,,,space,0.3924092999986897,None,,,,,,,,,,,,,,,,,P146,001,2025-04-09_14h21.29.838,posner_endo_new1,2024.2.4,60.01359908205119,2025-04-09 14h21.45.898930 +0100,
cube_r.png,0.1,-0.31,invalid,5,5,0,down,4.935030299999198,None,space,0.3716141000004427,None,,,,,0,5,5,5,,,,,2157.4123070000023,,,,,,,,,,,,,2157.3967359000017,2157.4123070000023,2157.4123070000023,2157.4123070000023,2162.3582322,,,,2162.364024300001,2162.375534900002,2162.375534900002,2162.4242839,2162.424502500002,2162.4408866000012,2162.4408866000012,2162.4408866000012,2162.507393,2162.8246433999993,,,,down,4.935030299999198,None,,,,,space,0.3716141000004427,None,,,,,,,,,,,,,,,,,P146,001,2025-04-09_14h21.29.838,posner_endo_new1,2024.2.4,60.01359908205119,2025-04-09 14h21.45.898930 +0100,
cube_r.png,0.1,0.31,valid,6,6,0,down,4.6441113999972,None,space,0.3242781000008108,None,,,,,0,6,6,6,,,,,2162.8405079000004,,,,,,,,,,,,,2162.8248157000016,2162.8405079000004,2162.8405079000004,2162.8405079000004,2167.4867742999995,,,,2167.492563300002,2167.5044721000013,2167.5044721000013,2167.552464700002,2167.5526873000017,2167.5688850000006,2167.5688850000006,2167.5688850000006,2167.6517920000006,2167.9025516,,,,down,4.6441113999972,None,,,,,space,0.3242781000008108,None,,,,,,,,,,,,,,,,,P146,001,2025-04-09_14h21.29.838,posner_endo_new1,2024.2.4,60.01359908205119,2025-04-09 14h21.45.898930 +0100,
cube_r.png,0.1,-0.31,invalid,7,7,0,down,4.325017500003014,None,space,0.31158549999963725,None,,,,,0,7,7,7,,,,,2167.9186389000024,,,,,,,,,,,,,2167.9027207,2167.9186389000024,2167.9186389000024,2167.9186389000024,2172.2479127000006,,,,2172.2538043999994,2172.2655412999993,2172.2655412999993,2172.3140292999997,2172.3142477,2172.330745700001,2172.330745700001,2172.330745700001,2172.397369000002,2172.647459300002,,,,down,4.325017500003014,None,,,,,space,0.31158549999963725,None,,,,,,,,,,,,,,,,,P146,001,2025-04-09_14h21.29.838,posner_endo_new1,2024.2.4,60.01359908205119,2025-04-09 14h21.45.898930 +0100,
cube_l.png,0.1,-0.31,valid,8,8,0,down,4.723728399996617,None,space,0.3570967000014207,None,,,,,0,8,8,8,,,,,2172.663582000001,,,,,,,,,,,,,2172.6476287000005,2172.663582000001,2172.663582000001,2172.663582000001,2177.3926272999997,,,,2177.3985319999992,2177.4100824000016,2177.4100824000016,2177.4589450999993,2177.4591648000023,2177.475662500001,2177.475662500001,2177.475662500001,2177.5421459000027,2177.8423583000003,,,,down,4.723728399996617,None,,,,,space,0.3570967000014207,None,,,,,,,,,,,,,,,,,P146,001,2025-04-09_14h21.29.838,posner_endo_new1,2024.2.4,60.01359908205119,2025-04-09 14h21.45.898930 +0100,
cube_r.png,0.1,-0.31,invalid,9,9,0,down,4.249536300001637,None,space,0.38791280000077677,None,,,,,0,9,9,9,,,,,2177.8581306000015,,,,,,,,,,,,,2177.8425263000026,2177.8581306000015,2177.8581306000015,2177.8581306000015,2182.1208898000004,,,,2182.126653200001,2182.1383172000023,2182.1383172000023,2182.187492600002,2182.1877134000024,2182.2040546999997,2182.2040546999997,2182.2040546999997,2182.2706402000003,2182.604524000002,,,,down,4.249536300001637,None,,,,,space,0.38791280000077677,None,,,,,,,,,,,,,,,,,P146,001,2025-04-09_14h21.29.838,posner_endo_new1,2024.2.4,60.01359908205119,2025-04-09 14h21.45.898930 +0100,
cube_l.png,0.1,0.31,invalid,10,10,0,down,3.9117326000014145,None,space,0.4017101999997976,None,,,,,0,10,10,10,,,,,2182.6203306999996,,,,,,,,,,,,,2182.604695000002,2182.6203306999996,2182.6203306999996,2182.6203306999996,2186.5337911000024,,,,2186.5396548999997,2186.5511339000004,2186.5511339000004,2186.5995624999996,2186.5997822000027,2186.616042900001,2186.616042900001,2186.616042900001,2186.6827072000015,2187.033211500002,,,,down,3.9117326000014145,None,,,,,space,0.4017101999997976,None,,,,,,,,,,,,,,,,,P146,001,2025-04-09_14h21.29.838,posner_endo_new1,2024.2.4,60.01359908205119,2025-04-09 14h21.45.898930 +0100,
cube_r.png,0.1,-0.31,invalid,11,11,0,down,4.689825599998585,None,space,0.4173704999993788,None,,,,,0,11,11,11,,,,,2187.049038000001,,,,,,,,,,,,,2187.033381600002,2187.049038000001,2187.049038000001,2187.049038000001,2191.7448977999993,,,,2191.750607500002,2191.762215400002,2191.762215400002,2191.8109796000026,2191.811205400001,2191.8273243000003,2191.8273243000003,2191.8273243000003,2191.894051200001,2192.2610596000013,,,,down,4.689825599998585,None,,,,,space,0.4173704999993788,None,,,,,,,,,,,,,,,,,P146,001,2025-04-09_14h21.29.838,posner_endo_new1,2024.2.4,60.01359908205119,2025-04-09 14h21.45.898930 +0100,
cube_r.png,0.1,0.31,valid,12,12,0,down,4.726622100002714,None,space,0.4085993000007875,None,,,,,0,12,12,12,,,,,2192.2769854,,,,,,,,,,,,,2192.2612289000026,2192.2769854,2192.2769854,2192.2769854,2197.006257000001,,,,2197.0120905000003,2197.0241072999997,2197.0241072999997,2197.0722950000018,2197.0725177999993,2197.0887521000004,2197.0887521000004,2197.0887521000004,2197.172149500002,2197.5058285000014,,,,down,4.726622100002714,None,,,,,space,0.4085993000007875,None,,,,,,,,,,,,,,,,,P146,001,2025-04-09_14h21.29.838,posner_endo_new1,2024.2.4,60.01359908205119,2025-04-09 14h21.45.898930 +0100,
cube_l.png,0.1,10,catch,13,13,0,down,4.145518900000752,None,space,0.3467686000003596,None,,,,,0,13,13,13,,,,,2197.5218728,,,,,,,,,,,,,2197.505996300002,2197.5218728,2197.5218728,2197.5218728,2201.668291500002,,,,2201.674103900001,2201.6857931000013,2201.6857931000013,2201.7343077000005,2201.7345311999998,2201.750766500001,2201.750766500001,2201.750766500001,2201.8340006,2202.101175399999,,,,down,4.145518900000752,None,,,,,space,0.3467686000003596,None,,,,,,,,,,,,,,,,,P146,001,2025-04-09_14h21.29.838,posner_endo_new1,2024.2.4,60.01359908205119,2025-04-09 14h21.45.898930 +0100,
cube_r.png,0.1,-0.31,invalid,14,14,0,down,1.8472165999992285,None,space,0.3772634000015387,None,,,,,0,14,14,14,,,,,2202.1171681000014,,,,,,,,,,,,,2202.1013475,2202.1171681000014,2202.1171681000014,2202.1171681000014,2203.965910499999,,,,2203.9717297999996,2203.983433900001,2203.983433900001,2204.0318407000013,2204.0320592999997,2204.0483256000007,2204.0483256000007,2204.0483256000007,2204.1150208,2204.4319168,,,,down,1.8472165999992285,None,,,,,space,0.3772634000015387,None,,,,,,,,,,,,,,,,,P146,001,2025-04-09_14h21.29.838,posner_endo_new1,2024.2.4,60.01359908205119,2025-04-09 14h21.45.898930 +0100,
cube_l.png,0.1,-0.31,valid,15,15,0,down,2.939981600000465,None,space,0.3633020999986911,None,,,,,0,15,15,15,,,,,2204.4477807000003,,,,,,,,,,,,,2204.4320835,2204.4477807000003,2204.4477807000003,2204.4477807000003,2207.3955239000024,,,,2207.4012992000025,2207.412817200002,2207.412817200002,2207.4616830000014,2207.461907500001,2207.4782320000013,2207.4782320000013,2207.4782320000013,2207.5446894000015,2207.845522899999,,,,down,2.939981600000465,None,,,,,space,0.3633020999986911,None,,,,,,,,,,,,,,,,,P146,001,2025-04-09_14h21.29.838,posner_endo_new1,2024.2.4,60.01359908205119,2025-04-09 14h21.45.898930 +0100,
cube_r.png,0.1,10,catch,16,16,0,down,2.805655800002569,None,None,,,,,,,0,16,16,16,,,,,2207.8613454000006,,,,,,,,,,,,,2207.8456908000007,2207.8613454000006,2207.8613454000006,2207.8613454000006,2210.675610800001,,,,2210.6814478000015,2210.692930100002,2210.692930100002,2210.7415679000005,2210.741788700001,2210.7581855999997,2210.7581855999997,2210.7581855999997,2210.8247303000026,2213.7555863000016,,,,down,2.805655800002569,None,2212.8390254000005,2213.771854900002,2213.771854900002,2213.771854900002,None,,,,,,,,,,,,,,,,,,,P146,001,2025-04-09_14h21.29.838,posner_endo_new1,2024.2.4,60.01359908205119,2025-04-09 14h21.45.898930 +0100,
cube_r.png,0.1,10,catch,17,17,0,down,2.2151081999982125,None,None,,,,,,,0,17,17,17,,,,,2213.771854900002,,,,,,,,,,,,,2213.7557422000027,2213.771854900002,2213.771854900002,2213.771854900002,2216.003618900002,,,,2216.009464300001,2216.021095,2216.021095,2216.0694767999994,2216.0696979999993,2216.0860549000026,2216.0860549000026,2216.0860549000026,2216.1526572000002,2219.083281700001,,,,down,2.2151081999982125,None,2218.1672553000026,2219.0994707000027,2219.0994707000027,2219.0994707000027,None,,,,,,,,,,,,,,,,,,,P146,001,2025-04-09_14h21.29.838,posner_endo_new1,2024.2.4,60.01359908205119,2025-04-09 14h21.45.898930 +0100,
cube_l.png,0.1,0.31,invalid,18,18,0,down,2.447743699998682,None,space,0.514387600000191,None,,,,,0,18,18,18,,,,,2219.0994707000027,,,,,,,,,,,,,2219.083439500002,2219.0994707000027,2219.0994707000027,2219.0994707000027,2221.5480657000007,,,,2221.5538436999996,2221.5656409000003,2221.5656409000003,2221.6137622999995,2221.6139810999994,2221.6303657999997,2221.6303657999997,2221.6303657999997,2221.713828,2222.147346900001,,,,down,2.447743699998682,None,,,,,space,0.514387600000191,None,,,,,,,,,,,,,,,,,P146,001,2025-04-09_14h21.29.838,posner_endo_new1,2024.2.4,60.01359908205119,2025-04-09 14h21.45.898930 +0100,
cube_l.png,0.1,10,catch,19,19,0,down,5.871988900002179,None,None,,,,,,,0,19,19,19,,,,,2222.1633513000015,,,,,,,,,,,,,2222.147522200001,2222.1633513000015,2222.1633513000015,2222.1633513000015,2228.041311000001,,,,2228.047115900001,2228.0589105,2228.0589105,2228.107178800001,2228.107405400002,2228.123680500001,2228.123680500001,2228.123680500001,2228.207019900001,2231.121173200001,,,,down,5.871988900002179,None,2230.2217036,2231.137391600001,2231.137391600001,2231.137391600001,None,,,,,,,,,,,,,,,,,,,P146,001,2025-04-09_14h21.29.838,posner_endo_new1,2024.2.4,60.01359908205119,2025-04-09 14h21.45.898930 +0100,
cube_l.png,0.1,0.31,invalid,20,20,0,down,1.7463490999980422,None,space,0.36066570000184583,None,,,,,0,20,20,20,,,,,2231.137391600001,,,,,,,,,,,,,2231.121330400001,2231.137391600001,2231.137391600001,2231.137391600001,2232.8862364000015,,,,2232.8920954999994,2232.9036884000016,2232.9036884000016,2232.952026499999,2232.9522486000023,2232.9688870000027,2232.9688870000027,2232.9688870000027,2233.0353323000018,2233.335845900001,,,,down,1.7463490999980422,None,,,,,space,0.36066570000184583,None,,,,,,,,,,,,,,,,,P146,001,2025-04-09_14h21.29.838,posner_endo_new1,2024.2.4,60.01359908205119,2025-04-09 14h21.45.898930 +0100,
cube_l.png,0.1,-0.31,valid,21,21,0,down,4.747670499997184,None,space,0.35969050000130665,None,,,,,0,21,21,21,,,,,2233.3517644999993,,,,,,,,,,,,,2233.336021400002,2233.3517644999993,2233.3517644999993,2233.3517644999993,2238.1142798,,,,2238.120070000001,2238.131647000002,2238.131647000002,2238.1801744000004,2238.1803978000025,2238.197006300001,2238.197006300001,2238.197006300001,2238.2632295000003,2238.5638223000024,,,,down,4.747670499997184,None,,,,,space,0.35969050000130665,None,,,,,,,,,,,,,,,,,P146,001,2025-04-09_14h21.29.838,posner_endo_new1,2024.2.4,60.01359908205119,2025-04-09 14h21.45.898930 +0100,
cube_r.png,0.1,0.31,valid,22,22,0,down,4.463282699998672,None,space,0.4606652000002214,None,,,,,0,22,22,22,,,,,2238.5798116000005,,,,,,,,,,,,,2238.5639964,2238.5798116000005,2238.5798116000005,2238.5798116000005,2243.0591645999993,,,,2243.064895800002,2243.076318700001,2243.076318700001,2243.125115300001,2243.1253378,2243.1416415999993,2243.1416415999993,2243.1416415999993,2243.2250568000018,2243.6087853000026,,,,down,4.463282699998672,None,,,,,space,0.4606652000002214,None,,,,,,,,,,,,,,,,,P146,001,2025-04-09_14h21.29.838,posner_endo_new1,2024.2.4,60.01359908205119,2025-04-09 14h21.45.898930 +0100,
cube_r.png,0.1,-0.31,invalid,23,23,0,down,4.515229000000545,None,space,0.4086203000006208,None,,,,,0,23,23,23,,,,,2243.6246383,,,,,,,,,,,,,2243.6089543000016,2243.6246383,2243.6246383,2243.6246383,2248.1541161999994,,,,2248.159886199999,2248.171420400002,2248.171420400002,2248.220075600002,2248.220294999999,2248.2360743000027,2248.2360743000027,2248.2360743000027,2248.3032483000025,2248.653570000002,,,,down,4.515229000000545,None,,,,,space,0.4086203000006208,None,,,,,,,,,,,,,,,,,P146,001,2025-04-09_14h21.29.838,posner_endo_new1,2024.2.4,60.01359908205119,2025-04-09 14h21.45.898930 +0100,
cube_r.png,0.1,0.31,valid,24,24,0,down,5.222911400000157,None,space,0.44665709999753744,None,,,,,0,24,24,24,,,,,2248.6695667999993,,,,,,,,,,,,,2248.6537382999995,2248.6695667999993,2248.6695667999993,2248.6695667999993,2253.8981698999996,,,,2253.9040575,2253.9155415999994,2253.9155415999994,2253.9641293999994,2253.964350000002,2253.9806203000007,2253.9806203000007,2253.9806203000007,2254.0639782,2254.4305578999993,,,,down,5.222911400000157,None,,,,,space,0.44665709999753744,None,,,,,,,,,,,,,,,,,P146,001,2025-04-09_14h21.29.838,posner_endo_new1,2024.2.4,60.01359908205119,2025-04-09 14h21.45.898930 +0100,
cube_r.png,0.1,-0.31,invalid,25,25,0,down,5.260636599999998,None,space,0.33893860000171117,None,,,,,0,25,25,25,,,,,2254.4467700000023,,,,,,,,,,,,,2254.4307321000015,2254.4467700000023,2254.4467700000023,2254.4467700000023,2259.7088722000008,,,,2259.7145918000024,2259.726163200001,2259.726163200001,2259.7749226000014,2259.7751432000005,2259.7914170000004,2259.7914170000004,2259.7914170000004,2259.8579925000013,2260.141542100002,,,,down,5.260636599999998,None,,,,,space,0.33893860000171117,None,,,,,,,,,,,,,,,,,P146,001,2025-04-09_14h21.29.838,posner_endo_new1,2024.2.4,60.01359908205119,2025-04-09 14h21.45.898930 +0100,
cube_l.png,0.1,-0.31,valid,26,26,0,down,5.094137000000046,None,space,0.32756259999951,None,,,,,0,26,26,26,,,,,2260.1575852999995,,,,,,,,,,,,,2260.1417108000023,2260.1575852999995,2260.1575852999995,2260.1575852999995,2265.253322299999,,,,2265.2591200000024,2265.2705867000004,2265.2705867000004,2265.3192407999995,2265.3194605000026,2265.3358197000016,2265.3358197000016,2265.3358197000016,2265.4185615000024,2265.6691518000007,,,,down,5.094137000000046,None,,,,,space,0.32756259999951,None,,,,,,,,,,,,,,,,,P146,001,2025-04-09_14h21.29.838,posner_endo_new1,2024.2.4,60.01359908205119,2025-04-09 14h21.45.898930 +0100,
cube_r.png,0.1,0.31,valid,27,27,0,down,3.8214951000009023,None,space,0.4341333999982453,None,,,,,0,27,27,27,,,,,2265.6854765000026,,,,,,,,,,,,,2265.6693223,2265.6854765000026,2265.6854765000026,2265.6854765000026,2269.5155852000025,,,,2269.521353600001,2269.5329542,2269.5329542,2269.5814857000005,2269.581703300002,2269.5982146000024,2269.5982146000024,2269.5982146000024,2269.6812114999993,2270.048459900001,,,,down,3.8214951000009023,None,,,,,space,0.4341333999982453,None,,,,,,,,,,,,,,,,,P146,001,2025-04-09_14h21.29.838,posner_endo_new1,2024.2.4,60.01359908205119,2025-04-09 14h21.45.898930 +0100,
cube_r.png,0.1,10,catch,28,28,0,down,4.435935100002098,None,None,,,,,,,0,28,28,28,,,,,2270.063891500002,,,,,,,,,,,,,2270.0486339000017,2270.063891500002,2270.063891500002,2270.063891500002,2274.5107503,,,,2274.5165748,2274.5280569000024,2274.5280569000024,2274.5763928000015,2274.576612500001,2274.593100599999,2274.593100599999,2274.593100599999,2274.676184600001,2277.590457000002,,,,down,4.435935100002098,None,2276.690707400001,2277.606488100002,2277.606488100002,2277.606488100002,None,,,,,,,,,,,,,,,,,,,P146,001,2025-04-09_14h21.29.838,posner_endo_new1,2024.2.4,60.01359908205119,2025-04-09 14h21.45.898930 +0100,
cube_r.png,0.1,0.31,valid,29,29,0,down,1.236529599998903,None,space,0.43841059999977006,None,,,,,0,29,29,29,,,,,2277.606488100002,,,,,,,,,,,,,2277.590612600001,2277.606488100002,2277.606488100002,2277.606488100002,2278.8558819000027,,,,2278.8616223999998,2278.873250299999,2278.873250299999,2278.9217790000002,2278.9219981000024,2278.9386202999995,2278.9386202999995,2278.9386202999995,2279.0218747,2279.3887238999996,,,,down,1.236529599998903,None,,,,,space,0.43841059999977006,None,,,,,,,,,,,,,,,,,P146,001,2025-04-09_14h21.29.838,posner_endo_new1,2024.2.4,60.01359908205119,2025-04-09 14h21.45.898930 +0100,
cube_r.png,0.1,0.31,valid,30,30,0,down,4.166765100002522,None,space,0.34385070000280393,None,,,,,0,30,30,30,,,,,2279.4046211000023,,,,,,,,,,,,,2279.3888929000022,2279.4046211000023,2279.4046211000023,2279.4046211000023,2283.5845187000014,,,,2283.590376700002,2283.6019884000016,2283.6019884000016,2283.6505746000003,2283.6507944000004,2283.6671406000023,2283.6671406000023,2283.6671406000023,2283.733854000002,2284.017670100002,,,,down,4.166765100002522,None,,,,,space,0.34385070000280393,None,,,,,,,,,,,,,,,,,P146,001,2025-04-09_14h21.29.838,posner_endo_new1,2024.2.4,60.01359908205119,2025-04-09 14h21.45.898930 +0100,
cube_l.png,0.1,-0.31,valid,31,31,0,down,4.05823220000093,None,space,0.46924240000225836,None,,,,,0,31,31,31,,,,,2284.0333969999992,,,,,,,,,,,,,2284.0178455999994,2284.0333969999992,2284.0333969999992,2284.0333969999992,2288.0965851,,,,2288.102355400002,2288.1138438000016,2288.1138438000016,2288.1625190000013,2288.1627415000003,2288.1790303000016,2288.1790303000016,2288.1790303000016,2288.2457015,2288.6626934000014,,,,down,4.05823220000093,None,,,,,space,0.46924240000225836,None,,,,,,,,,,,,,,,,,P146,001,2025-04-09_14h21.29.838,posner_endo_new1,2024.2.4,60.01359908205119,2025-04-09 14h21.45.898930 +0100,
cube_r.png,0.1,0.31,valid,32,32,0,down,4.788912199997867,None,space,0.37056500000107917,None,,,,,0,32,32,32,,,,,2288.678494300002,,,,,,,,,,,,,2288.6628629000006,2288.678494300002,2288.678494300002,2288.678494300002,2293.4741859999995,,,,2293.4799177999994,2293.4915242000025,2293.4915242000025,2293.540374,2293.540603100002,2293.5569324000026,2293.5569324000026,2293.5569324000026,2293.6234270000023,2293.940763300001,,,,down,4.788912199997867,None,,,,,space,0.37056500000107917,None,,,,,,,,,,,,,,,,,P146,001,2025-04-09_14h21.29.838,posner_endo_new1,2024.2.4,60.01359908205119,2025-04-09 14h21.45.898930 +0100,
cube_r.png,0.1,-0.31,invalid,33,33,0,down,5.4153906000028655,None,space,0.39786820000153966,None,,,,,0,33,33,33,,,,,2293.9565882000024,,,,,,,,,,,,,2293.940931500001,2293.9565882000024,2293.9565882000024,2293.9565882000024,2299.384965000001,,,,2299.3907787999997,2299.4023689999995,2299.4023689999995,2299.4508771,2299.451097100002,2299.467711600002,2299.467711600002,2299.467711600002,2299.5343463000027,2299.868067200001,,,,down,5.4153906000028655,None,,,,,space,0.39786820000153966,None,,,,,,,,,,,,,,,,,P146,001,2025-04-09_14h21.29.838,posner_endo_new1,2024.2.4,60.01359908205119,2025-04-09 14h21.45.898930 +0100,
cube_r.png,0.1,10,catch,34,34,0,down,4.919429000001401,None,None,,,,,,,0,34,34,34,,,,,2299.8838032999993,,,,,,,,,,,,,2299.8682412000016,2299.8838032999993,2299.8838032999993,2299.8838032999993,2304.812918300002,,,,2304.818715600002,2304.8302995000013,2304.8302995000013,2304.879005400002,2304.8792240000002,2304.8954311000016,2304.8954311000016,2304.8954311000016,2304.9786559999993,2307.892801000002,,,,down,4.919429000001401,None,2306.9931632000007,2307.9091707000007,2307.9091707000007,2307.9091707000007,None,,,,,,,,,,,,,,,,,,,P146,001,2025-04-09_14h21.29.838,posner_endo_new1,2024.2.4,60.01359908205119,2025-04-09 14h21.45.898930 +0100,
cube_r.png,0.1,0.31,valid,35,35,0,down,1.4945273000012094,None,space,0.490741399997205,None,,,,,0,35,35,35,,,,,2307.9091707000007,,,,,,,,,,,,,2307.8929568999993,2307.9091707000007,2307.9091707000007,2307.9091707000007,2309.408232400001,,,,2309.4140093000024,2309.425607600002,2309.425607600002,2309.4742122999996,2309.4744307,2309.490785500002,2309.490785500002,2309.490785500002,2309.557230300001,2309.9908496999997,,,,down,1.4945273000012094,None,,,,,space,0.490741399997205,None,,,,,,,,,,,,,,,,,P146,001,2025-04-09_14h21.29.838,posner_endo_new1,2024.2.4,60.01359908205119,2025-04-09 14h21.45.898930 +0100,
cube_r.png,0.1,-0.31,invalid,36,36,0,down,4.556398999997327,None,space,0.5150728999979037,None,,,,,0,36,36,36,,,,,2310.006779200001,,,,,,,,,,,,,2309.9910189,2310.006779200001,2310.006779200001,2310.006779200001,2314.569679,,,,2314.5753748999996,2314.587076,2314.587076,2314.6355275000024,2314.635751900001,2314.6521414000017,2314.6521414000017,2314.6521414000017,2314.7186301,2315.1690278999995,,,,down,4.556398999997327,None,,,,,space,0.5150728999979037,None,,,,,,,,,,,,,,,,,P146,001,2025-04-09_14h21.29.838,posner_endo_new1,2024.2.4,60.01359908205119,2025-04-09 14h21.45.898930 +0100,
cube_l.png,0.1,0.31,invalid,37,37,0,down,4.93111620000127,None,space,0.7558475000005274,None,,,,,0,37,37,37,,,,,2315.184969400001,,,,,,,,,,,,,2315.1692083000016,2315.184969400001,2315.184969400001,2315.184969400001,2320.130796199999,,,,2320.1365743999995,2320.1482773999996,2320.1482773999996,2320.1965032000007,2320.1967256999997,2320.213225700001,2320.213225700001,2320.213225700001,2320.2962592000003,2320.9797,,,,down,4.93111620000127,None,,,,,space,0.7558475000005274,None,,,,,,,,,,,,,,,,,P146,001,2025-04-09_14h21.29.838,posner_endo_new1,2024.2.4,60.01359908205119,2025-04-09 14h21.45.898930 +0100,
cube_l.png,0.1,0.31,invalid,38,38,0,down,4.296419799997238,None,space,0.43761869999798364,None,,,,,0,38,38,38,,,,,2320.995474800002,,,,,,,,,,,,,2320.9798698000013,2320.995474800002,2320.995474800002,2320.995474800002,2325.3085388,,,,2325.314315800002,2325.325694700001,2325.325694700001,2325.374673000002,2325.3748933000024,2325.3907302000007,2325.3907302000007,2325.3907302000007,2325.4577501999993,2325.8413266000025,,,,down,4.296419799997238,None,,,,,space,0.43761869999798364,None,,,,,,,,,,,,,,,,,P146,001,2025-04-09_14h21.29.838,posner_endo_new1,2024.2.4,60.01359908205119,2025-04-09 14h21.45.898930 +0100,
cube_r.png,0.1,0.31,valid,39,39,0,down,3.986404200000834,None,space,0.4482309000013629,None,,,,,0,39,39,39,,,,,2325.857246300002,,,,,,,,,,,,,2325.8415029999996,2325.857246300002,2325.857246300002,2325.857246300002,2329.8539077999994,,,,2329.8596378,2329.871094000002,2329.871094000002,2329.919973600001,2329.9202006000014,2329.936453000002,2329.936453000002,2329.936453000002,2330.0031041,2330.3868287000005,,,,down,3.986404200000834,None,,,,,space,0.4482309000013629,None,,,,,,,,,,,,,,,,,P146,001,2025-04-09_14h21.29.838,posner_endo_new1,2024.2.4,60.01359908205119,2025-04-09 14h21.45.898930 +0100,
cube_l.png,0.1,0.31,invalid,40,40,0,down,4.441299099999014,None,space,0.4326349000002665,None,,,,,0,40,40,40,,,,,2330.4026741000016,,,,,,,,,,,,,2330.3870038999994,2330.4026741000016,2330.4026741000016,2330.4026741000016,2334.8487946999994,,,,2334.8546669999996,2334.8661195000022,2334.8661195000022,2334.9149859999998,2334.915211300002,2334.9312243999993,2334.9312243999993,2334.9312243999993,2334.9977266999995,2335.3650686,,,,down,4.441299099999014,None,,,,,space,0.4326349000002665,None,,,,,,,,,,,,,,,,,P146,001,2025-04-09_14h21.29.838,posner_endo_new1,2024.2.4,60.01359908205119,2025-04-09 14h21.45.898930 +0100,
cube_l.png,0.1,10,catch,41,41,0,down,4.414835999999923,None,None,,,,,,,0,41,41,41,,,,,2335.3808888999993,,,,,,,,,,,,,2335.3652385999994,2335.3808888999993,2335.3808888999993,2335.3808888999993,2339.810441900001,,,,2339.8161813000006,2339.8277541999996,2339.8277541999996,2339.8763550000003,2339.8765740000017,2339.892856800001,2339.892856800001,2339.892856800001,2339.959564200002,2342.8902970000017,,,,down,4.414835999999923,None,2341.973943500001,2342.9065057000007,2342.9065057000007,2342.9065057000007,None,,,,,,,,,,,,,,,,,,,P146,001,2025-04-09_14h21.29.838,posner_endo_new1,2024.2.4,60.01359908205119,2025-04-09 14h21.45.898930 +0100,
cube_l.png,0.1,-0.31,valid,42,42,0,down,0.4247670000004291,None,space,0.355572000000393,None,,,,,0,42,42,42,,,,,2342.9065057000007,,,,,,,,,,,,,2342.8904518000018,2342.9065057000007,2342.9065057000007,2342.9065057000007,2343.3401779000014,,,,2343.3459943000016,2343.3576359,2343.3576359,2343.4062374000023,2343.4064684000004,2343.4226148000016,2343.4226148000016,2343.4226148000016,2343.489271000002,2343.7897058000017,,,,down,0.4247670000004291,None,,,,,space,0.355572000000393,None,,,,,,,,,,,,,,,,,P146,001,2025-04-09_14h21.29.838,posner_endo_new1,2024.2.4,60.01359908205119,2025-04-09 14h21.45.898930 +0100,
cube_l.png,0.1,10,catch,43,43,0,down,4.606857599999785,None,None,,,,,,,0,43,43,43,,,,,2343.8055170000007,,,,,,,,,,,,,2343.7898795,2343.8055170000007,2343.8055170000007,2343.8055170000007,2348.4185629999993,,,,2348.4243013000014,2348.436057400002,2348.436057400002,2348.484358400001,2348.4845779000025,2348.5008245000026,2348.5008245000026,2348.5008245000026,2348.5677388000004,2351.4982918999995,,,,down,4.606857599999785,None,2350.582000000002,2351.5143618,2351.5143618,2351.5143618,None,,,,,,,,,,,,,,,,,,,P146,001,2025-04-09_14h21.29.838,posner_endo_new1,2024.2.4,60.01359908205119,2025-04-09 14h21.45.898930 +0100,
cube_l.png,0.1,0.31,invalid,44,44,0,down,2.144950300000346,None,space,0.3933685999982117,None,,,,,0,44,44,44,,,,,2351.5143618,,,,,,,,,,,,,2351.4984492000003,2351.5143618,2351.5143618,2351.5143618,2353.662640900002,,,,2353.6684212,2353.6801041,2353.6801041,2353.7288907,2353.729110700002,2353.7453386000016,2353.7453386000016,2353.7453386000016,2353.8119625,2354.1455932999997,,,,down,2.144950300000346,None,,,,,space,0.3933685999982117,None,,,,,,,,,,,,,,,,,P146,001,2025-04-09_14h21.29.838,posner_endo_new1,2024.2.4,60.01359908205119,2025-04-09 14h21.45.898930 +0100,
cube_l.png,0.1,0.31,invalid,45,45,0,down,5.353782199999841,None,space,0.4757289999979548,None,,,,,0,45,45,45,,,,,2354.161874100002,,,,,,,,,,,,,2354.1457642999994,2354.161874100002,2354.161874100002,2354.161874100002,2359.523519800001,,,,2359.5294722,2359.5410811,2359.5410811,2359.5896584,2359.5898847000026,2359.606274400001,2359.606274400001,2359.606274400001,2359.672791000001,2360.0896169000007,,,,down,5.353782199999841,None,,,,,space,0.4757289999979548,None,,,,,,,,,,,,,,,,,P146,001,2025-04-09_14h21.29.838,posner_endo_new1,2024.2.4,60.01359908205119,2025-04-09 14h21.45.898930 +0100,
cube_r.png,0.1,0.31,valid,46,46,0,down,4.266174100001081,None,space,0.4279425999993691,None,,,,,0,46,46,46,,,,,2360.1055191000014,,,,,,,,,,,,,2360.089790400001,2360.1055191000014,2360.1055191000014,2360.1055191000014,2364.385404200002,,,,2364.391223900002,2364.402733499999,2364.402733499999,2364.4513181,2364.4515396999996,2364.467476400001,2364.467476400001,2364.467476400001,2364.5510464,2364.9009829999995,,,,down,4.266174100001081,None,,,,,space,0.4279425999993691,None,,,,,,,,,,,,,,,,,P146,001,2025-04-09_14h21.29.838,posner_endo_new1,2024.2.4,60.01359908205119,2025-04-09 14h21.45.898930 +0100,
cube_l.png,0.1,-0.31,valid,47,47,0,down,4.7338849999978265,None,space,0.4454153000006045,None,,,,,0,47,47,47,,,,,2364.9175022000018,,,,,,,,,,,,,2364.901149600002,2364.9175022000018,2364.9175022000018,2364.9175022000018,2369.663124300001,,,,2369.6690719,2369.6805821000016,2369.6805821000016,2369.729285199999,2369.7295137,2369.7456397000024,2369.7456397000024,2369.7456397000024,2369.8123954000002,2370.1957832000007,,,,down,4.7338849999978265,None,,,,,space,0.4454153000006045,None,,,,,,,,,,,,,,,,,P146,001,2025-04-09_14h21.29.838,posner_endo_new1,2024.2.4,60.01359908205119,2025-04-09 14h21.45.898930 +0100,
cube_r.png,0.1,-0.31,invalid,48,48,0,down,3.895523299997876,None,space,0.5926836999969964,None,,,,,0,48,48,48,,,,,2370.2119931000016,,,,,,,,,,,,,2370.1959511000023,2370.2119931000016,2370.2119931000016,2370.2119931000016,2374.1090375999993,,,,2374.114873900002,2374.1266355000007,2374.1266355000007,2374.1746925000007,2374.174915800002,2374.191380600001,2374.191380600001,2374.191380600001,2374.274433900002,2374.791296700001,,,,down,3.895523299997876,None,,,,,space,0.5926836999969964,None,,,,,,,,,,,,,,,,,P146,001,2025-04-09_14h21.29.838,posner_endo_new1,2024.2.4,60.01359908205119,2025-04-09 14h21.45.898930 +0100,
cube_r.png,0.1,10,catch,49,49,0,down,4.764277800000855,None,None,,,,,,,0,49,49,49,,,,,2374.8071867,,,,,,,,,,,,,2374.7914698000022,2374.8071867,2374.8071867,2374.8071867,2379.5863936000023,,,,2379.5921598000023,2379.6036354000025,2379.6036354000025,2379.652526400001,2379.6527508,2379.6689171,2379.6689171,2379.6689171,2379.7355933,2382.6663402000013,,,,down,4.764277800000855,None,2381.7502714,2382.6824694000024,2382.6824694000024,2382.6824694000024,None,,,,,,,,,,,,,,,,,,,P146,001,2025-04-09_14h21.29.838,posner_endo_new1,2024.2.4,60.01359908205119,2025-04-09 14h21.45.898930 +0100,
cube_l.png,0.1,-0.31,valid,50,50,0,down,3.8809833000013896,None,space,0.4105277999988175,None,,,,,0,50,50,50,,,,,2382.6824694000024,,,,,,,,,,,,,2382.666497000002,2382.6824694000024,2382.6824694000024,2382.6824694000024,2386.5795873000025,,,,2386.5853760000027,2386.5969196000005,2386.5969196000005,2386.6453629000025,2386.645585000002,2386.661809100002,2386.661809100002,2386.661809100002,2386.7281097000014,2387.0789810000024,,,,down,3.8809833000013896,None,,,,,space,0.4105277999988175,None,,,,,,,,,,,,,,,,,P146,001,2025-04-09_14h21.29.838,posner_endo_new1,2024.2.4,60.01359908205119,2025-04-09 14h21.45.898930 +0100,
cube_l.png,0.1,-0.31,valid,51,51,0,down,3.020822800001042,None,space,0.5650151999980153,None,,,,,0,51,51,51,,,,,2387.0947263000016,,,,,,,,,,,,,2387.0791498,2387.0947263000016,2387.0947263000016,2387.0947263000016,2390.1255174,,,,2390.1312830000024,2390.1428127,2390.1428127,2390.1918203000023,2390.192041099999,2390.2083384,2390.2083384,2390.2083384,2390.2747953,2390.7751197,,,,down,3.020822800001042,None,,,,,space,0.5650151999980153,None,,,,,,,,,,,,,,,,,P146,001,2025-04-09_14h21.29.838,posner_endo_new1,2024.2.4,60.01359908205119,2025-04-09 14h21.45.898930 +0100,
cube_r.png,0.1,-0.31,invalid,52,52,0,down,4.2210894000018016,None,space,0.4732910000020638,None,,,,,0,52,52,52,,,,,2390.7910760000013,,,,,,,,,,,,,2390.775292000002,2390.7910760000013,2390.7910760000013,2390.7910760000013,2395.0212009999996,,,,2395.027116699999,2395.0389147000024,2395.0389147000024,2395.0867172,2395.086940600002,2395.103271600001,2395.103271600001,2395.103271600001,2395.186581500002,2395.5863261000013,,,,down,4.2210894000018016,None,,,,,space,0.4732910000020638,None,,,,,,,,,,,,,,,,,P146,001,2025-04-09_14h21.29.838,posner_endo_new1,2024.2.4,60.01359908205119,2025-04-09 14h21.45.898930 +0100,
cube_l.png,0.1,-0.31,valid,53,53,0,down,4.1936056000013195,None,space,0.38844809999864083,None,,,,,0,53,53,53,,,,,2395.6026665000027,,,,,,,,,,,,,2395.5864979,2395.6026665000027,2395.6026665000027,2395.6026665000027,2399.7990218000014,,,,2399.8048806000006,2399.8165332000026,2399.8165332000026,2399.8652803000004,2399.8655056000025,2399.8817858,2399.8817858,2399.8817858,2399.9484360000024,2400.282153100001,,,,down,4.1936056000013195,None,,,,,space,0.38844809999864083,None,,,,,,,,,,,,,,,,,P146,001,2025-04-09_14h21.29.838,posner_endo_new1,2024.2.4,60.01359908205119,2025-04-09 14h21.45.898930 +0100,
cube_r.png,0.1,10,catch,54,54,0,down,3.9219597000010253,None,None,,,,,,,0,54,54,54,,,,,2400.2979478000016,,,,,,,,,,,,,2400.2823344999997,2400.2979478000016,2400.2979478000016,2400.2979478000016,2404.2290624000016,,,,2404.247073800001,2404.2584825000013,2404.2584825000013,2404.29406,2404.294627200001,2404.3104133000015,2404.3104133000015,2404.3104133000015,2404.3937602000005,2407.3086225000006,,,,down,3.9219597000010253,None,2406.4082935000006,2407.3240031000023,2407.3240031000023,2407.3240031000023,None,,,,,,,,,,,,,,,,,,,P146,001,2025-04-09_14h21.29.838,posner_endo_new1,2024.2.4,60.01359908205119,2025-04-09 14h21.45.898930 +0100,
cube_l.png,0.1,0.31,invalid,55,55,0,down,2.399682199997187,None,space,0.4363106000018888,None,,,,,0,55,55,55,,,,,2407.3240031000023,,,,,,,,,,,,,2407.309069400002,2407.3240031000023,2407.3240031000023,2407.3240031000023,2409.740399800001,,,,2409.7587112,2409.769789500002,2409.769789500002,2409.8051244000017,2409.8054637000023,2409.8215765999994,2409.8215765999994,2409.8215765999994,2409.9049018000005,2410.2719082000003,,,,down,2.399682199997187,None,,,,,space,0.4363106000018888,None,,,,,,,,,,,,,,,,,P146,001,2025-04-09_14h21.29.838,posner_endo_new1,2024.2.4,60.01359908205119,2025-04-09 14h21.45.898930 +0100,
cube_l.png,0.1,-0.31,valid,56,56,0,down,4.003780799997912,None,space,0.41162480000275536,None,,,,,0,56,56,56,,,,,2410.2878117,,,,,,,,,,,,,2410.272188400002,2410.2878117,2410.2878117,2410.2878117,2414.301572200002,,,,2414.312756800002,2414.3231846000017,2414.3231846000017,2414.3667363000022,2414.367075599999,2414.3838055000015,2414.3838055000015,2414.3838055000015,2414.4665188,2414.8010971000003,,,,down,4.003780799997912,None,,,,,space,0.41162480000275536,None,,,,,,,,,,,,,,,,,P146,001,2025-04-09_14h21.29.838,posner_endo_new1,2024.2.4,60.01359908205119,2025-04-09 14h21.45.898930 +0100,
cube_r.png,0.1,0.31,valid,57,57,0,down,4.0433532999995805,None,space,0.4026143000010052,None,,,,,0,57,57,57,,,,,2414.8161155000016,,,,,,,,,,,,,2414.8013844000016,2414.8161155000016,2414.8161155000016,2414.8161155000016,2418.8632591000023,,,,2418.8746016000005,2418.884629100001,2418.884629100001,2418.929158400002,2418.9295010000023,2418.9458360999997,2418.9458360999997,2418.9458360999997,2419.028448600002,2419.362702300001,,,,down,4.0433532999995805,None,,,,,space,0.4026143000010052,None,,,,,,,,,,,,,,,,,P146,001,2025-04-09_14h21.29.838,posner_endo_new1,2024.2.4,60.01359908205119,2025-04-09 14h21.45.898930 +0100,
cube_r.png,0.1,-0.31,invalid,58,58,0,down,3.7054236000003584,None,space,0.5790878000007069,None,,,,,0,58,58,58,,,,,2419.378499000002,,,,,,,,,,,,,2419.3629959000027,2419.378499000002,2419.378499000002,2419.378499000002,2423.0925435999998,,,,2423.1037668999998,2423.114042000001,2423.114042000001,2423.1579284,2423.1582678000013,2423.174618000001,2423.174618000001,2423.174618000001,2423.2574403,2423.7586115000013,,,,down,3.7054236000003584,None,,,,,space,0.5790878000007069,None,,,,,,,,,,,,,,,,,P146,001,2025-04-09_14h21.29.838,posner_endo_new1,2024.2.4,60.01359908205119,2025-04-09 14h21.45.898930 +0100,
cube_l.png,0.1,0.31,invalid,59,59,0,down,3.9103373999969335,None,space,0.6640055999996548,None,,,,,0,59,59,59,,,,,2423.7736750000004,,,,,,,,,,,,,2423.7588904000004,2423.7736750000004,2423.7736750000004,2423.7736750000004,2427.6878982000017,,,,2427.699145800001,2427.7093499000002,2427.7093499000002,2427.7533600999996,2427.753710000001,2427.7699845999996,2427.7699845999996,2427.7699845999996,2427.853180500002,2428.4368472999995,,,,down,3.9103373999969335,None,,,,,space,0.6640055999996548,None,,,,,,,,,,,,,,,,,P146,001,2025-04-09_14h21.29.838,posner_endo_new1,2024.2.4,60.01359908205119,2025-04-09 14h21.45.898930 +0100,
,,,,,,,,,,,,,,,,,,,,,,,,,,,,,,,,,,,,,,,,,,,,,,,,,,,,,,,,,,,,,,,,,,,,,2428.4370340999994,2428.4524394,2428.4524394,2488.4580693999997,2495.7695897000012,space,67.30413739999858,None,,,,,,,,,P146,001,2025-04-09_14h21.29.838,posner_endo_new1,2024.2.4,60.01359908205119,2025-04-09 14h21.45.898930 +0100,
,,,,,,,,,,,,,,,,,,,,,,,,,,,,,,,,,,2495.7697585000024,2495.783914200001,2498.882107900001,2498.765437599999,,,,,,,,,,,,,,,,,,,,,,,,,,,,,,,,,,,,,,,,,,,,,,,,P146,001,2025-04-09_14h21.29.838,posner_endo_new1,2024.2.4,60.01359908205119,2025-04-09 14h21.45.898930 +0100,
cube_l.png,0.1,10,catch,0,0,0,up,9.218129699998826,None,None,,,,,,,,,,,0,0,0,0,2498.882107900001,,,,,,,,,,,,,2498.8739399000006,2498.882107900001,2498.882107900001,2498.882107900001,2508.1053998000025,,,,2508.114888100001,2508.1251844,2508.1251844,2508.171339700002,2508.1716436000024,2508.1874473999997,2508.1874473999997,2508.1874473999997,2508.2711056000007,2511.1854071000016,,,,,,,2510.2856678999997,2511.201282400001,2511.201282400001,2511.201282400001,,,,,,,,,,,,up,9.218129699998826,None,None,,,,,P146,001,2025-04-09_14h21.29.838,posner_endo_new1,2024.2.4,60.01359908205119,2025-04-09 14h21.45.898930 +0100,
cube_l.png,0.1,10,catch,1,1,0,up,2.2756392000010237,None,None,,,,,,,,,,,0,1,1,1,2511.201282400001,,,,,,,,,,,,,2511.185641600001,2511.201282400001,2511.201282400001,2511.201282400001,2513.4830852000014,,,,2513.4923853,2513.502653899999,2513.502653899999,2513.549163200001,2513.5494658999996,2513.565725700002,2513.565725700002,2513.565725700002,2513.6318665,2516.563347800002,,,,,,,2515.6465419000015,2516.5790331000026,2516.5790331000026,2516.5790331000026,,,,,,,,,,,,up,2.2756392000010237,None,None,,,,,P146,001,2025-04-09_14h21.29.838,posner_endo_new1,2024.2.4,60.01359908205119,2025-04-09 14h21.45.898930 +0100,
cube_l.png,0.1,0.31,invalid,2,2,0,up,2.345043199999054,None,space,0.514785600000323,None,,,,,,,,,0,2,2,2,2516.5790331000026,,,,,,,,,,,,,2516.5635879,2516.5790331000026,2516.5790331000026,2516.5790331000026,2518.9280523000016,,,,2518.9374207,2518.9475342000005,2518.9475342000005,2518.9932622000015,2518.993562300002,2519.0100593000025,2519.0100593000025,2519.0100593000025,2519.0930388000015,2519.527086599999,,,,,,,,,,,,,,,,,,,,,,up,2.345043199999054,None,space,0.514785600000323,None,,,P146,001,2025-04-09_14h21.29.838,posner_endo_new1,2024.2.4,60.01359908205119,2025-04-09 14h21.45.898930 +0100,
cube_l.png,0.1,0.31,invalid,3,3,0,up,3.8369284000000334,None,space,0.4450680000009015,None,,,,,,,,,0,3,3,3,2519.542926500002,,,,,,,,,,,,,2519.5273405000007,2519.542926500002,2519.542926500002,2519.542926500002,2523.3900295999993,,,,2523.399280900001,2523.4090357999994,2523.4090357999994,2523.4553815,2523.455808999999,2523.4718439999997,2523.4718439999997,2523.4718439999997,2523.555411000001,2523.9228657999993,,,,,,,,,,,,,,,,,,,,,,up,3.8369284000000334,None,space,0.4450680000009015,None,,,P146,001,2025-04-09_14h21.29.838,posner_endo_new1,2024.2.4,60.01359908205119,2025-04-09 14h21.45.898930 +0100,
cube_l.png,0.1,-0.31,valid,4,4,0,up,4.729589600003237,None,space,0.42160429999785265,None,,,,,,,,,0,4,4,4,2523.9380311999994,,,,,,,,,,,,,2523.9231201000002,2523.9380311999994,2523.9380311999994,2523.9380311999994,2528.684530800001,,,,2528.6938351999997,2528.703881600002,2528.703881600002,2528.7500685000014,2528.7503689000005,2528.7669795,2528.7669795,2528.7669795,2528.8497306000027,2529.2007083999997,,,,,,,,,,,,,,,,,,,,,,up,4.729589600003237,None,space,0.42160429999785265,None,,,P146,001,2025-04-09_14h21.29.838,posner_endo_new1,2024.2.4,60.01359908205119,2025-04-09 14h21.45.898930 +0100,
cube_r.png,0.1,-0.31,invalid,5,5,0,up,7.499631599999702,None,space,0.5151339000003645,None,,,,,,,,,0,5,5,5,2529.2161756000023,,,,,,,,,,,,,2529.2009628000014,2529.2161756000023,2529.2161756000023,2529.2161756000023,2536.7261199999994,,,,2536.7354362000005,2536.745509200002,2536.745509200002,2536.792072,2536.7923751000017,2536.8083565000015,2536.8083565000015,2536.8083565000015,2536.8916196000027,2537.3254911000004,,,,,,,,,,,,,,,,,,,,,,up,7.499631599999702,None,space,0.5151339000003645,None,,,P146,001,2025-04-09_14h21.29.838,posner_endo_new1,2024.2.4,60.01359908205119,2025-04-09 14h21.45.898930 +0100,
cube_r.png,0.1,0.31,valid,6,6,0,up,5.190682500000548,None,space,0.4359842999983812,None,,,,,,,,,0,6,6,6,2537.3415160000004,,,,,,,,,,,,,2537.3257478000014,2537.3415160000004,2537.3415160000004,2537.3415160000004,2542.5368936000013,,,,2542.5462122000026,2542.556416800002,2542.556416800002,2542.6029043000017,2542.6032092000023,2542.6190381000015,2542.6190381000015,2542.6190381000015,2542.702632100001,2543.0699243000017,,,,,,,,,,,,,,,,,,,,,,up,5.190682500000548,None,space,0.4359842999983812,None,,,P146,001,2025-04-09_14h21.29.838,posner_endo_new1,2024.2.4,60.01359908205119,2025-04-09 14h21.45.898930 +0100,
cube_r.png,0.1,-0.31,invalid,7,7,0,up,6.423565500001132,None,space,0.4610201000032248,None,,,,,,,,,0,7,7,7,2543.0851643999995,,,,,,,,,,,,,2543.0701771999993,2543.0851643999995,2543.0851643999995,2543.0851643999995,2549.5131997999997,,,,2549.522575400002,2549.532644400002,2549.532644400002,2549.5792019,2549.5795056999996,2549.5956092000015,2549.5956092000015,2549.5956092000015,2549.6789542000006,2550.0628546000007,,,,,,,,,,,,,,,,,,,,,,up,6.423565500001132,None,space,0.4610201000032248,None,,,P146,001,2025-04-09_14h21.29.838,posner_endo_new1,2024.2.4,60.01359908205119,2025-04-09 14h21.45.898930 +0100,
cube_l.png,0.1,-0.31,valid,8,8,0,up,4.2297271999996156,None,space,0.35080809999999474,None,,,,,,,,,0,8,8,8,2550.0783758,,,,,,,,,,,,,2550.063107400001,2550.0783758,2550.0783758,2550.0783758,2554.3251262000013,,,,2554.334520700002,2554.3444517999997,2554.3444517999997,2554.3905410000007,2554.3908419,2554.4070312000003,2554.4070312000003,2554.4070312000003,2554.4903269999995,2554.7746714000023,,,,,,,,,,,,,,,,,,,,,,up,4.2297271999996156,None,space,0.35080809999999474,None,,,P146,001,2025-04-09_14h21.29.838,posner_endo_new1,2024.2.4,60.01359908205119,2025-04-09 14h21.45.898930 +0100,
cube_r.png,0.1,-0.31,invalid,9,9,0,up,3.7503372999999556,None,space,0.4568658999996842,None,,,,,,,,,0,9,9,9,2554.7898626999995,,,,,,,,,,,,,2554.774930200001,2554.7898626999995,2554.7898626999995,2554.7898626999995,2558.554064600001,,,,2558.563294899999,2558.573510800001,2558.573510800001,2558.6198313999994,2558.6201408000015,2558.6360471000007,2558.6360471000007,2558.6360471000007,2558.7193019000006,2559.1031494000017,,,,,,,,,,,,,,,,,,,,,,up,3.7503372999999556,None,space,0.4568658999996842,None,,,P146,001,2025-04-09_14h21.29.838,posner_endo_new1,2024.2.4,60.01359908205119,2025-04-09 14h21.45.898930 +0100,
cube_l.png,0.1,0.31,invalid,10,10,0,up,2.9250033000025724,None,space,0.4438206999984686,None,,,,,,,,,0,10,10,10,2559.1192444000008,,,,,,,,,,,,,2559.1034045000015,2559.1192444000008,2559.1192444000008,2559.1192444000008,2562.0505427999997,,,,2562.059789499999,2562.069881800002,2562.069881800002,2562.1162981000016,2562.1166006999993,2562.132593800001,2562.132593800001,2562.132593800001,2562.215856400002,2562.5830236,,,,,,,,,,,,,,,,,,,,,,up,2.9250033000025724,None,space,0.4438206999984686,None,,,P146,001,2025-04-09_14h21.29.838,posner_endo_new1,2024.2.4,60.01359908205119,2025-04-09 14h21.45.898930 +0100,
cube_r.png,0.1,-0.31,invalid,11,11,0,up,3.734005900001648,None,space,0.39726599999994505,None,,,,,,,,,0,11,11,11,2562.5987994999996,,,,,,,,,,,,,2562.5832771999994,2562.5987994999996,2562.5987994999996,2562.5987994999996,2566.3458014000025,,,,2566.3550749000024,2566.365418900001,2566.365418900001,2566.4118901,2566.4121949,2566.4284129000007,2566.4284129000007,2566.4284129000007,2566.495024300002,2566.8286647000023,,,,,,,,,,,,,,,,,,,,,,up,3.734005900001648,None,space,0.39726599999994505,None,,,P146,001,2025-04-09_14h21.29.838,posner_endo_new1,2024.2.4,60.01359908205119,2025-04-09 14h21.45.898930 +0100,
cube_r.png,0.1,0.31,valid,12,12,0,up,4.6799470000005385,None,space,0.3796083000015642,None,,,,,,,,,0,12,12,12,2566.8446595999994,,,,,,,,,,,,,2566.828919800002,2566.8446595999994,2566.8446595999994,2566.8446595999994,2571.5407625000007,,,,2571.5501423000023,2571.5602345000007,2571.5602345000007,2571.6064497000007,2571.606756500001,2571.6228149000017,2571.6228149000017,2571.6228149000017,2571.706205800001,2572.0067679999993,,,,,,,,,,,,,,,,,,,,,,up,4.6799470000005385,None,space,0.3796083000015642,None,,,P146,001,2025-04-09_14h21.29.838,posner_endo_new1,2024.2.4,60.01359908205119,2025-04-09 14h21.45.898930 +0100,
cube_l.png,0.1,10,catch,13,13,0,up,3.7500956999974733,None,None,,,,,,,,,,,0,13,13,13,2572.0223153000006,,,,,,,,,,,,,2572.0070207999997,2572.0223153000006,2572.0223153000006,2572.0223153000006,2575.7864644,,,,2575.795878000001,2575.8059909000003,2575.8059909000003,2575.8522243000007,2575.8525862999995,2575.868714,2575.868714,2575.868714,2575.951933200002,2578.866371,,,,,,,2577.9666252999996,2578.882249099999,2578.882249099999,2578.882249099999,,,,,,,,,,,,up,3.7500956999974733,None,None,,,,,P146,001,2025-04-09_14h21.29.838,posner_endo_new1,2024.2.4,60.01359908205119,2025-04-09 14h21.45.898930 +0100,
cube_r.png,0.1,-0.31,invalid,14,14,0,up,2.2739895999984583,None,space,0.36643240000194055,None,,,,,,,,,0,14,14,14,2578.882249099999,,,,,,,,,,,,,2578.866617200001,2578.882249099999,2578.882249099999,2578.882249099999,2581.164162600002,,,,2581.1734617,2581.1835704000005,2581.1835704000005,2581.2300620999995,2581.2303651,2581.246643000002,2581.246643000002,2581.246643000002,2581.329448200002,2581.614111900002,,,,,,,,,,,,,,,,,,,,,,up,2.2739895999984583,None,space,0.36643240000194055,None,,,P146,001,2025-04-09_14h21.29.838,posner_endo_new1,2024.2.4,60.01359908205119,2025-04-09 14h21.45.898930 +0100,
cube_l.png,0.1,-0.31,valid,15,15,0,up,3.3347006000003603,None,space,0.3517909000001964,None,,,,,,,,,0,15,15,15,2581.629243700001,,,,,,,,,,,,,2581.614366400001,2581.629243700001,2581.629243700001,2581.629243700001,2584.9770874000023,,,,2584.9863514999997,2584.9966139000026,2584.9966139000026,2585.0426327000023,2585.0429385999996,2585.059057300001,2585.059057300001,2585.059057300001,2585.1425783000013,2585.4266241000005,,,,,,,,,,,,,,,,,,,,,,up,3.3347006000003603,None,space,0.3517909000001964,None,,,P146,001,2025-04-09_14h21.29.838,posner_endo_new1,2024.2.4,60.01359908205119,2025-04-09 14h21.45.898930 +0100,
cube_r.png,0.1,10,catch,16,16,0,up,2.3384846999979345,None,None,,,,,,,,,,,0,16,16,16,2585.441873800002,,,,,,,,,,,,,2585.4268804999992,2585.441873800002,2585.441873800002,2585.441873800002,2587.7905604000007,,,,2587.7998288000017,2587.8099174000017,2587.8099174000017,2587.856564900001,2587.856865900001,2587.8730883999997,2587.8730883999997,2587.8730883999997,2587.9561076000027,2590.8704610000023,,,,,,,2589.9710053000017,2590.886741099999,2590.886741099999,2590.886741099999,,,,,,,,,,,,up,2.3384846999979345,None,None,,,,,P146,001,2025-04-09_14h21.29.838,posner_endo_new1,2024.2.4,60.01359908205119,2025-04-09 14h21.45.898930 +0100,
cube_r.png,0.1,10,catch,17,17,0,up,3.493102500000532,None,None,,,,,,,,,,,0,17,17,17,2590.886741099999,,,,,,,,,,,,,2590.8706980000024,2590.886741099999,2590.886741099999,2590.886741099999,2594.384271900002,,,,2594.3935519000006,2594.4038051000025,2594.4038051000025,2594.449929800001,2594.4502283,2594.466002100002,2594.466002100002,2594.466002100002,2594.5497073000006,2597.463949600002,,,,,,,2596.5638510999997,2597.480045600001,2597.480045600001,2597.480045600001,,,,,,,,,,,,up,3.493102500000532,None,None,,,,,P146,001,2025-04-09_14h21.29.838,posner_endo_new1,2024.2.4,60.01359908205119,2025-04-09 14h21.45.898930 +0100,
cube_l.png,0.1,0.31,invalid,18,18,0,up,0.365071899999748,None,space,0.3685679000009259,None,,,,,,,,,0,18,18,18,2597.480045600001,,,,,,,,,,,,,2597.4641840000004,2597.480045600001,2597.480045600001,2597.480045600001,2597.8470979000012,,,,2597.8563023999995,2597.8668168000004,2597.8668168000004,2597.9125950000016,2597.912902600001,2597.9292957,2597.9292957,2597.9292957,2598.0127165000013,2598.313085900001,,,,,,,,,,,,,,,,,,,,,,up,0.365071899999748,None,space,0.3685679000009259,None,,,P146,001,2025-04-09_14h21.29.838,posner_endo_new1,2024.2.4,60.01359908205119,2025-04-09 14h21.45.898930 +0100,
cube_l.png,0.1,10,catch,19,19,0,up,2.9079387999991013,None,None,,,,,,,,,,,0,19,19,19,2598.3287280000004,,,,,,,,,,,,,2598.3133433000003,2598.3287280000004,2598.3287280000004,2598.3287280000004,2601.2438844000026,,,,2601.2531086000017,2601.2632359000017,2601.2632359000017,2601.309545100001,2601.3098499000007,2601.3257169999997,2601.3257169999997,2601.3257169999997,2601.4093558999994,2604.323304900001,,,,,,,2603.4235241000024,2604.3396904,2604.3396904,2604.3396904,,,,,,,,,,,,up,2.9079387999991013,None,None,,,,,P146,001,2025-04-09_14h21.29.838,posner_endo_new1,2024.2.4,60.01359908205119,2025-04-09 14h21.45.898930 +0100,
cube_l.png,0.1,0.31,invalid,20,20,0,up,1.264753200000996,None,space,0.4028251999989152,None,,,,,,,,,0,20,20,20,2604.3396904,,,,,,,,,,,,,2604.3235385000007,2604.3396904,2604.3396904,2604.3396904,2605.6057736000002,,,,2605.6150595,2605.625259200002,2605.625259200002,2605.671487899999,2605.6717879000025,2605.6883325000017,2605.6883325000017,2605.6883325000017,2605.7546586999997,2606.1054643000025,,,,,,,,,,,,,,,,,,,,,,up,1.264753200000996,None,space,0.4028251999989152,None,,,P146,001,2025-04-09_14h21.29.838,posner_endo_new1,2024.2.4,60.01359908205119,2025-04-09 14h21.45.898930 +0100,
cube_l.png,0.1,-0.31,valid,21,21,0,up,1.5068308000008983,None,space,0.5779795999987982,None,,,,,,,,,0,21,21,21,2606.1209285000004,,,,,,,,,,,,,2606.105716599999,2606.1209285000004,2606.1209285000004,2606.1209285000004,2607.6370854000015,,,,2607.6463315,2607.656621000002,2607.656621000002,2607.702979400001,2607.7032801999994,2607.7195900000006,2607.7195900000006,2607.7195900000006,2607.7861534000003,2608.303441,,,,,,,,,,,,,,,,,,,,,,up,1.5068308000008983,None,space,0.5779795999987982,None,,,P146,001,2025-04-09_14h21.29.838,posner_endo_new1,2024.2.4,60.01359908205119,2025-04-09 14h21.45.898930 +0100,
cube_r.png,0.1,0.31,valid,22,22,0,up,3.7978035999985877,None,space,0.38881229999969946,None,,,,,,,,,0,22,22,22,2608.3185983000003,,,,,,,,,,,,,2608.3036993000023,2608.3185983000003,2608.3185983000003,2608.3185983000003,2612.132326400002,,,,2612.141642300001,2612.1516887,2612.1516887,2612.198526700002,2612.1988286000014,2612.2145464000023,2612.2145464000023,2612.2145464000023,2612.2982155000027,2612.6157427,,,,,,,,,,,,,,,,,,,,,,up,3.7978035999985877,None,space,0.38881229999969946,None,,,P146,001,2025-04-09_14h21.29.838,posner_endo_new1,2024.2.4,60.01359908205119,2025-04-09 14h21.45.898930 +0100,
cube_r.png,0.1,-0.31,invalid,23,23,0,up,2.0933016000017233,None,space,0.5740134999978181,None,,,,,,,,,0,23,23,23,2612.6312526,,,,,,,,,,,,,2612.6159966000014,2612.6312526,2612.6312526,2612.6312526,2614.7297282,,,,2614.7390123000005,2614.749189500002,2614.749189500002,2614.795783100002,2614.7960843,2614.8123121000026,2614.8123121000026,2614.8123121000026,2614.8789290000022,2615.396064299999,,,,,,,,,,,,,,,,,,,,,,up,2.0933016000017233,None,space,0.5740134999978181,None,,,P146,001,2025-04-09_14h21.29.838,posner_endo_new1,2024.2.4,60.01359908205119,2025-04-09 14h21.45.898930 +0100,
cube_r.png,0.1,0.31,valid,24,24,0,up,2.632916999998997,None,space,0.38921599999957834,None,,,,,,,,,0,24,24,24,2615.411572000001,,,,,,,,,,,,,2615.396323000001,2615.411572000001,2615.411572000001,2615.411572000001,2618.059572500002,,,,2618.0687677999995,2618.079096199999,2618.079096199999,2618.1254647999995,2618.125772700001,2618.142224200001,2618.142224200001,2618.142224200001,2618.2085356000025,2618.5425667000018,,,,,,,,,,,,,,,,,,,,,,up,2.632916999998997,None,space,0.38921599999957834,None,,,P146,001,2025-04-09_14h21.29.838,posner_endo_new1,2024.2.4,60.01359908205119,2025-04-09 14h21.45.898930 +0100,
cube_r.png,0.1,-0.31,invalid,25,25,0,up,3.781762599999638,None,space,0.518922900002508,None,,,,,,,,,0,25,25,25,2618.558229099999,,,,,,,,,,,,,2618.542822200001,2618.558229099999,2618.558229099999,2618.558229099999,2622.3552464999993,,,,2622.3644373999996,2622.3746339000027,2622.3746339000027,2622.4214582999994,2622.4217573000024,2622.437961300002,2622.437961300002,2622.437961300002,2622.504379400001,2622.9715983999995,,,,,,,,,,,,,,,,,,,,,,up,3.781762599999638,None,space,0.518922900002508,None,,,P146,001,2025-04-09_14h21.29.838,posner_endo_new1,2024.2.4,60.01359908205119,2025-04-09 14h21.45.898930 +0100,
cube_l.png,0.1,-0.31,valid,26,26,0,up,6.689529899998888,None,space,0.3638573999996879,None,,,,,,,,,0,26,26,26,2622.9869586999994,,,,,,,,,,,,,2622.9718599000007,2622.9869586999994,2622.9869586999994,2622.9869586999994,2629.681529199999,,,,2629.6908113000027,2629.7010357,2629.7010357,2629.7472688000016,2629.7475736000015,2629.763363000002,2629.763363000002,2629.763363000002,2629.846538400001,2630.1309065000023,,,,,,,,,,,,,,,,,,,,,,up,6.689529899998888,None,space,0.3638573999996879,None,,,P146,001,2025-04-09_14h21.29.838,posner_endo_new1,2024.2.4,60.01359908205119,2025-04-09 14h21.45.898930 +0100,
cube_r.png,0.1,0.31,valid,27,27,0,up,3.2748085999992327,None,space,0.3593968000022869,None,,,,,,,,,0,27,27,27,2630.146231999999,,,,,,,,,,,,,2630.1311639000014,2630.146231999999,2630.146231999999,2630.146231999999,2633.427739300001,,,,2633.4369604999993,2633.4472478000025,2633.4472478000025,2633.4935275999997,2633.4938272,2633.5095290000027,2633.5095290000027,2633.5095290000027,2633.5928171000014,2633.877301200002,,,,,,,,,,,,,,,,,,,,,,up,3.2748085999992327,None,space,0.3593968000022869,None,,,P146,001,2025-04-09_14h21.29.838,posner_endo_new1,2024.2.4,60.01359908205119,2025-04-09 14h21.45.898930 +0100,
cube_r.png,0.1,10,catch,28,28,0,up,4.511546000001545,None,None,,,,,,,,,,,0,28,28,28,2633.8924552000026,,,,,,,,,,,,,2633.8775551,2633.8924552000026,2633.8924552000026,2633.8924552000026,2638.405897299999,,,,2638.4151668000013,2638.425341500002,2638.425341500002,2638.471214100002,2638.4715109999997,2638.4881907000017,2638.4881907000017,2638.4881907000017,2638.571472200001,2641.485404700001,,,,,,,2640.5855733000026,2641.5016682999994,2641.5016682999994,2641.5016682999994,,,,,,,,,,,,up,4.511546000001545,None,None,,,,,P146,001,2025-04-09_14h21.29.838,posner_endo_new1,2024.2.4,60.01359908205119,2025-04-09 14h21.45.898930 +0100,
cube_r.png,0.1,0.31,valid,29,29,0,up,2.022401700000046,None,space,0.3736663999989105,None,,,,,,,,,0,29,29,29,2641.5016682999994,,,,,,,,,,,,,2641.485640900002,2641.5016682999994,2641.5016682999994,2641.5016682999994,2643.5338717000013,,,,2643.543111400002,2643.553333,2643.553333,2643.5993552,2643.5996553000004,2643.6163713999995,2643.6163713999995,2643.6163713999995,2643.699063100001,2644.0003308000014,,,,,,,,,,,,,,,,,,,,,,up,2.022401700000046,None,space,0.3736663999989105,None,,,P146,001,2025-04-09_14h21.29.838,posner_endo_new1,2024.2.4,60.01359908205119,2025-04-09 14h21.45.898930 +0100,
cube_r.png,0.1,0.31,valid,30,30,0,up,5.493049600001541,None,space,0.43161460000192164,None,,,,,,,,,0,30,30,30,2644.0158327000026,,,,,,,,,,,,,2644.0005856999996,2644.0158327000026,2644.0158327000026,2644.0158327000026,2649.512928700002,,,,2649.5309634000005,2649.5414389,2649.5414389,2649.5766557000024,2649.577107000001,2649.5930995000017,2649.5930995000017,2649.5930995000017,2649.6765323,2650.0276003,,,,,,,,,,,,,,,,,,,,,,up,5.493049600001541,None,space,0.43161460000192164,None,,,P146,001,2025-04-09_14h21.29.838,posner_endo_new1,2024.2.4,60.01359908205119,2025-04-09 14h21.45.898930 +0100,
cube_l.png,0.1,-0.31,valid,31,31,0,up,3.1619098000010126,None,space,0.3609226000007766,None,,,,,,,,,0,31,31,31,2650.0426251999997,,,,,,,,,,,,,2650.0279727000016,2650.0426251999997,2650.0426251999997,2650.0426251999997,2653.2075893,,,,2653.2179479000006,2653.2284590000017,2653.2284590000017,2653.2728731999996,2653.2733064999993,2653.2894452,2653.2894452,2653.2894452,2653.3726674000027,2653.6566017000005,,,,,,,,,,,,,,,,,,,,,,up,3.1619098000010126,None,space,0.3609226000007766,None,,,P146,001,2025-04-09_14h21.29.838,posner_endo_new1,2024.2.4,60.01359908205119,2025-04-09 14h21.45.898930 +0100,
cube_r.png,0.1,0.31,valid,32,32,0,up,3.6432089999980235,None,space,0.5405948000006902,None,,,,,,,,,0,32,32,32,2653.672774400002,,,,,,,,,,,,,2653.6568757999994,2653.672774400002,2653.672774400002,2653.672774400002,2657.3193278,,,,2657.3258578999994,2657.337730200001,2657.337730200001,2657.3856006000024,2657.3858196,2657.4021109000023,2657.4021109000023,2657.4021109000023,2657.468684800002,2657.9522959999995,,,,,,,,,,,,,,,,,,,,,,up,3.6432089999980235,None,space,0.5405948000006902,None,,,P146,001,2025-04-09_14h21.29.838,posner_endo_new1,2024.2.4,60.01359908205119,2025-04-09 14h21.45.898930 +0100,
cube_r.png,0.1,-0.31,invalid,33,33,0,up,3.6044392000003427,None,space,0.4034107999978005,None,,,,,,,,,0,33,33,33,2657.9682319999993,,,,,,,,,,,,,2657.9524705000003,2657.9682319999993,2657.9682319999993,2657.9682319999993,2661.5819424,,,,2661.588232500002,2661.600008100002,2661.600008100002,2661.647813800002,2661.648036300001,2661.664309399999,2661.664309399999,2661.664309399999,2661.7475946000013,2662.0815915999992,,,,,,,,,,,,,,,,,,,,,,up,3.6044392000003427,None,space,0.4034107999978005,None,,,P146,001,2025-04-09_14h21.29.838,posner_endo_new1,2024.2.4,60.01359908205119,2025-04-09 14h21.45.898930 +0100,
cube_r.png,0.1,10,catch,34,34,0,up,4.019127899999148,None,None,,,,,,,,,,,0,34,34,34,2662.0974026000004,,,,,,,,,,,,,2662.0817656,2662.0974026000004,2662.0974026000004,2662.0974026000004,2666.1272439999993,,,,2666.1335843000015,2666.1455502999997,2666.1455502999997,2666.1933242000014,2666.1935424000003,2666.209493800001,2666.209493800001,2666.209493800001,2666.2763522999994,2669.207244600002,,,,,,,2668.2909371999995,2669.2232974,2669.2232974,2669.2232974,,,,,,,,,,,,up,4.019127899999148,None,None,,,,,P146,001,2025-04-09_14h21.29.838,posner_endo_new1,2024.2.4,60.01359908205119,2025-04-09 14h21.45.898930 +0100,
cube_r.png,0.1,0.31,valid,35,35,0,up,1.0534723999990092,None,space,0.4818334000010509,None,,,,,,,,,0,35,35,35,2669.2232974,,,,,,,,,,,,,2669.2074052999997,2669.2232974,2669.2232974,2669.2232974,2670.2897722000016,,,,2670.295621100002,2670.307366000001,2670.307366000001,2670.3558132,2670.3560324000027,2670.3722487000014,2670.3722487000014,2670.3722487000014,2670.4387356000007,2670.8558572,,,,,,,,,,,,,,,,,,,,,,up,1.0534723999990092,None,space,0.4818334000010509,None,,,P146,001,2025-04-09_14h21.29.838,posner_endo_new1,2024.2.4,60.01359908205119,2025-04-09 14h21.45.898930 +0100,
cube_r.png,0.1,-0.31,invalid,36,36,0,up,6.588450999999623,None,space,0.3387987999994948,None,,,,,,,,,0,36,36,36,2670.8715869000007,,,,,,,,,,,,,2670.856039099999,2670.8715869000007,2670.8715869000007,2670.8715869000007,2677.465380900001,,,,2677.4712266999995,2677.4827828000016,2677.4827828000016,2677.531501199999,2677.531720400002,2677.5481559,2677.5481559,2677.5481559,2677.6146314,2677.8985388,,,,,,,,,,,,,,,,,,,,,,up,6.588450999999623,None,space,0.3387987999994948,None,,,P146,001,2025-04-09_14h21.29.838,posner_endo_new1,2024.2.4,60.01359908205119,2025-04-09 14h21.45.898930 +0100,
cube_l.png,0.1,0.31,invalid,37,37,0,up,4.121849499999371,None,space,0.4576926000008825,None,,,,,,,,,0,37,37,37,2677.9144468000013,,,,,,,,,,,,,2677.8987143000013,2677.9144468000013,2677.9144468000013,2677.9144468000013,2682.044465499999,,,,2682.0501777000027,2682.0615653999994,2682.0615653999994,2682.110258200002,2682.110483200002,2682.126745400001,2682.126745400001,2682.126745400001,2682.2099371000004,2682.593789300001,,,,,,,,,,,,,,,,,,,,,,up,4.121849499999371,None,space,0.4576926000008825,None,,,P146,001,2025-04-09_14h21.29.838,posner_endo_new1,2024.2.4,60.01359908205119,2025-04-09 14h21.45.898930 +0100,
cube_l.png,0.1,0.31,invalid,38,38,0,up,5.434264300001814,None,space,0.46948279999924125,None,,,,,,,,,0,38,38,38,2682.6096787000024,,,,,,,,,,,,,2682.593965100001,2682.6096787000024,2682.6096787000024,2682.6096787000024,2688.0543774,,,,2688.0602567000024,2688.0719499000006,2688.0719499000006,2688.1210033999996,2688.121222900001,2688.137536099999,2688.137536099999,2688.137536099999,2688.204118400001,2688.6211334,,,,,,,,,,,,,,,,,,,,,,up,5.434264300001814,None,space,0.46948279999924125,None,,,P146,001,2025-04-09_14h21.29.838,posner_endo_new1,2024.2.4,60.01359908205119,2025-04-09 14h21.45.898930 +0100,
cube_r.png,0.1,0.31,valid,39,39,0,up,9.551551999997173,None,space,0.3410242999998445,None,,,,,,,,,0,39,39,39,2688.6370007000005,,,,,,,,,,,,,2688.621308400001,2688.6370007000005,2688.6370007000005,2688.6370007000005,2698.1943197,,,,2698.200328499999,2698.211835000002,2698.211835000002,2698.2604262000023,2698.260650600001,2698.2768663000024,2698.2768663000024,2698.2768663000024,2698.343773200002,2698.6270422000016,,,,,,,,,,,,,,,,,,,,,,up,9.551551999997173,None,space,0.3410242999998445,None,,,P146,001,2025-04-09_14h21.29.838,posner_endo_new1,2024.2.4,60.01359908205119,2025-04-09 14h21.45.898930 +0100,
cube_l.png,0.1,0.31,invalid,40,40,0,up,3.512722399998893,None,space,0.42369219999818597,None,,,,,,,,,0,40,40,40,2698.643396800002,,,,,,,,,,,,,2698.6272167000025,2698.643396800002,2698.643396800002,2698.643396800002,2702.1568284000023,,,,2702.1625604,2702.174286199999,2702.174286199999,2702.2231592999997,2702.223381,2702.2397652,2702.2397652,2702.2397652,2702.3061443000006,2702.673357300002,,,,,,,,,,,,,,,,,,,,,,up,3.512722399998893,None,space,0.42369219999818597,None,,,P146,001,2025-04-09_14h21.29.838,posner_endo_new1,2024.2.4,60.01359908205119,2025-04-09 14h21.45.898930 +0100,
cube_l.png,0.1,10,catch,41,41,0,up,4.155391899999813,None,None,,,,,,,,,,,0,41,41,41,2702.6892517000015,,,,,,,,,,,,,2702.6735327000024,2702.6892517000015,2702.6892517000015,2702.6892517000015,2706.8524259000005,,,,2706.8582195000017,2706.8696928000027,2706.8696928000027,2706.9183833999996,2706.9186032,2706.9348088000006,2706.9348088000006,2706.9348088000006,2707.0180123000027,2709.932188400002,,,,,,,2709.0328001000016,2709.9483744000026,2709.9483744000026,2709.9483744000026,,,,,,,,,,,,up,4.155391899999813,None,None,,,,,P146,001,2025-04-09_14h21.29.838,posner_endo_new1,2024.2.4,60.01359908205119,2025-04-09 14h21.45.898930 +0100,
cube_l.png,0.1,-0.31,valid,42,42,0,up,1.4325086999997438,None,space,0.3115192000004754,None,,,,,,,,,0,42,42,42,2709.9483744000026,,,,,,,,,,,,,2709.932353600001,2709.9483744000026,2709.9483744000026,2709.9483744000026,2711.3976819000018,,,,2711.4034730999992,2711.4147697000008,2711.4147697000008,2711.463558800002,2711.4637796999996,2711.480195100001,2711.480195100001,2711.480195100001,2711.5469137,2711.7972905000024,,,,,,,,,,,,,,,,,,,,,,up,1.4325086999997438,None,space,0.3115192000004754,None,,,P146,001,2025-04-09_14h21.29.838,posner_endo_new1,2024.2.4,60.01359908205119,2025-04-09 14h21.45.898930 +0100,
cube_l.png,0.1,10,catch,43,43,0,up,6.534782399998221,None,None,,,,,,,,,,,0,43,43,43,2711.813247500002,,,,,,,,,,,,,2711.7974641,2711.813247500002,2711.813247500002,2711.813247500002,2718.3574093999996,,,,2718.3632400999995,2718.375031200001,2718.375031200001,2718.4231929000016,2718.4234160000015,2718.4400184000006,2718.4400184000006,2718.4400184000006,2718.5233632000018,2721.4370844000005,,,,,,,2720.5376958000015,2721.4533873,2721.4533873,2721.4533873,,,,,,,,,,,,up,6.534782399998221,None,None,,,,,P146,001,2025-04-09_14h21.29.838,posner_endo_new1,2024.2.4,60.01359908205119,2025-04-09 14h21.45.898930 +0100,
cube_l.png,0.1,0.31,invalid,44,44,0,up,1.335491699999693,None,space,0.39459749999878113,None,,,,,,,,,0,44,44,44,2721.4533873,,,,,,,,,,,,,2721.4372466999994,2721.4533873,2721.4533873,2721.4533873,2722.8028258000013,,,,2722.8085678000025,2722.8201125000014,2722.8201125000014,2722.8683445000024,2722.8685635,2722.884858600002,2722.884858600002,2722.884858600002,2722.968530500002,2723.285108600001,,,,,,,,,,,,,,,,,,,,,,up,1.335491699999693,None,space,0.39459749999878113,None,,,P146,001,2025-04-09_14h21.29.838,posner_endo_new1,2024.2.4,60.01359908205119,2025-04-09 14h21.45.898930 +0100,
cube_l.png,0.1,0.31,invalid,45,45,0,up,1.8147977000007813,None,space,0.5492259999991802,None,,,,,,,,,0,45,45,45,2723.3016441,,,,,,,,,,,,,2723.2852832000026,2723.3016441,2723.3016441,2723.3016441,2725.1172482,,,,2725.1229817999993,2725.1345067,2725.1345067,2725.1830597000007,2725.183280000001,2725.199568,2725.199568,2725.199568,2725.282956400002,2725.7499013000015,,,,,,,,,,,,,,,,,,,,,,up,1.8147977000007813,None,space,0.5492259999991802,None,,,P146,001,2025-04-09_14h21.29.838,posner_endo_new1,2024.2.4,60.01359908205119,2025-04-09 14h21.45.898930 +0100,
cube_r.png,0.1,0.31,valid,46,46,0,up,2.654665099998965,None,space,0.5980639000008523,None,,,,,,,,,0,46,46,46,2725.7658059000023,,,,,,,,,,,,,2725.7500734999994,2725.7658059000023,2725.7658059000023,2725.7658059000023,2728.4305989999993,,,,2728.4363305000006,2728.4481468000013,2728.4481468000013,2728.4961479000012,2728.4963706000017,2728.5129777,2728.5129777,2728.5129777,2728.596205500002,2729.1132736,,,,,,,,,,,,,,,,,,,,,,up,2.654665099998965,None,space,0.5980639000008523,None,,,P146,001,2025-04-09_14h21.29.838,posner_endo_new1,2024.2.4,60.01359908205119,2025-04-09 14h21.45.898930 +0100,
cube_l.png,0.1,-0.31,valid,47,47,0,up,4.1877779999995255,None,space,0.39364540000315174,None,,,,,,,,,0,47,47,47,2729.128825,,,,,,,,,,,,,2729.113449100001,2729.128825,2729.128825,2729.128825,2733.3249136000013,,,,2733.3308117000015,2733.3423914000014,2733.3423914000014,2733.3912579000025,2733.391487000001,2733.4079944000005,2733.4079944000005,2733.4079944000005,2733.474578600002,2733.8081471000005,,,,,,,,,,,,,,,,,,,,,,up,4.1877779999995255,None,space,0.39364540000315174,None,,,P146,001,2025-04-09_14h21.29.838,posner_endo_new1,2024.2.4,60.01359908205119,2025-04-09 14h21.45.898930 +0100,
cube_r.png,0.1,-0.31,invalid,48,48,0,up,4.076385899999877,None,space,0.4456623000005493,None,,,,,,,,,0,48,48,48,2733.8239582999995,,,,,,,,,,,,,2733.8083275999998,2733.8239582999995,2733.8239582999995,2733.8239582999995,2737.9039410000005,,,,2737.9097451000016,2737.9212571000025,2737.9212571000025,2737.9699925999994,2737.970223600001,2737.9864141,2737.9864141,2737.9864141,2738.0531585000026,2738.4368004000025,,,,,,,,,,,,,,,,,,,,,,up,4.076385899999877,None,space,0.4456623000005493,None,,,P146,001,2025-04-09_14h21.29.838,posner_endo_new1,2024.2.4,60.01359908205119,2025-04-09 14h21.45.898930 +0100,
cube_r.png,0.1,10,catch,49,49,0,up,4.120033400002285,None,space,0.3147552000009455,None,,,,,,,,,0,49,49,49,2738.4526933000016,,,,,,,,,,,,,2738.4369737000015,2738.4526933000016,2738.4526933000016,2738.4526933000016,2742.5819948000026,,,,2742.5877293000012,2742.599404299999,2742.599404299999,2742.6483905000023,2742.648611200002,2742.6649586999993,2742.6649586999993,2742.6649586999993,2742.731792800001,2742.9824327999995,,,,,,,,,,,,,,,,,,,,,,up,4.120033400002285,None,space,0.3147552000009455,None,,,P146,001,2025-04-09_14h21.29.838,posner_endo_new1,2024.2.4,60.01359908205119,2025-04-09 14h21.45.898930 +0100,
cube_l.png,0.1,-0.31,valid,50,50,0,up,4.11821780000173,None,space,0.41279579999900307,None,,,,,,,,,0,50,50,50,2742.998111000001,,,,,,,,,,,,,2742.9826132000017,2742.998111000001,2742.998111000001,2742.998111000001,2747.1280565000015,,,,2747.1338357000022,2747.1455029000026,2747.1455029000026,2747.1939581000006,2747.1941778,2747.2103717000027,2747.2103717000027,2747.2103717000027,2747.2935023000027,2747.6270298000018,,,,,,,,,,,,,,,,,,,,,,up,4.11821780000173,None,space,0.41279579999900307,None,,,P146,001,2025-04-09_14h21.29.838,posner_endo_new1,2024.2.4,60.01359908205119,2025-04-09 14h21.45.898930 +0100,
cube_l.png,0.1,-0.31,valid,51,51,0,up,2.97799010000017,None,space,0.4141703999994206,None,,,,,,,,,0,51,51,51,2747.643266400002,,,,,,,,,,,,,2747.627211400002,2747.643266400002,2747.643266400002,2747.643266400002,2750.624356100001,,,,2750.6300721000007,2750.6416114999993,2750.6416114999993,2750.690213400001,2750.6904353000027,2750.7068585000015,2750.7068585000015,2750.7068585000015,2750.7734997000007,2751.123754600001,,,,,,,,,,,,,,,,,,,,,,up,2.97799010000017,None,space,0.4141703999994206,None,,,P146,001,2025-04-09_14h21.29.838,posner_endo_new1,2024.2.4,60.01359908205119,2025-04-09 14h21.45.898930 +0100,
cube_r.png,0.1,-0.31,invalid,52,52,0,up,5.04043079999974,None,space,0.48254090000045835,None,,,,,,,,,0,52,52,52,2751.1397784,,,,,,,,,,,,,2751.1239270000005,2751.1397784,2751.1397784,2751.1397784,2756.1849146999994,,,,2756.190613900002,2756.202002000002,2756.202002000002,2756.2350713000014,2756.235281699999,2756.2511328,2756.2511328,2756.2511328,2756.3344564,2756.7343903,,,,,,,,,,,,,,,,,,,,,,up,5.04043079999974,None,space,0.48254090000045835,None,2756.2511328,2756.2511328,P146,001,2025-04-09_14h21.29.838,posner_endo_new1,2024.2.4,60.01359908205119,2025-04-09 14h21.45.898930 +0100,
cube_l.png,0.1,-0.31,valid,53,53,0,up,2.7821212999988347,None,space,0.32771560000037425,None,,,,,,,,,0,53,53,53,2756.7507350000014,,,,,,,,,,,,,2756.7345652000004,2756.7507350000014,2756.7507350000014,2756.7507350000014,2759.5485512000014,,,,2759.5542728,2759.5658569000007,2759.5658569000007,2759.6146313000027,2759.6148611000026,2759.6312982000018,2759.6312982000018,2759.6312982000018,2759.7143144,2759.964858800002,,,,,,,,,,,,,,,,,,,,,,up,2.7821212999988347,None,space,0.32771560000037425,None,,,P146,001,2025-04-09_14h21.29.838,posner_endo_new1,2024.2.4,60.01359908205119,2025-04-09 14h21.45.898930 +0100,
cube_r.png,0.1,10,catch,54,54,0,up,3.4636114000022644,None,space,0.3782621000027575,None,,,,,,,,,0,54,54,54,2759.980878800001,,,,,,,,,,,,,2759.9650342999994,2759.980878800001,2759.980878800001,2759.980878800001,2763.4609334000015,,,,2763.466708300002,2763.4780365000006,2763.4780365000006,2763.527308200002,2763.5275269000012,2763.5437157000015,2763.5437157000015,2763.5437157000015,2763.610349900002,2763.9269743000004,,,,,,,,,,,,,,,,,,,,,,up,3.4636114000022644,None,space,0.3782621000027575,None,,,P146,001,2025-04-09_14h21.29.838,posner_endo_new1,2024.2.4,60.01359908205119,2025-04-09 14h21.45.898930 +0100,
cube_l.png,0.1,0.31,invalid,55,55,0,up,4.060991499998636,None,space,0.32741209999949206,None,,,,,,,,,0,55,55,55,2763.9431877000025,,,,,,,,,,,,,2763.9271472,2763.9431877000025,2763.9431877000025,2763.9431877000025,2768.006701800001,,,,2768.012633099999,2768.0247849000007,2768.0247849000007,2768.0723166000025,2768.0725372000015,2768.088849399999,2768.088849399999,2768.088849399999,2768.1556242000006,2768.4223980000024,,,,,,,,,,,,,,,,,,,,,,up,4.060991499998636,None,space,0.32741209999949206,None,,,P146,001,2025-04-09_14h21.29.838,posner_endo_new1,2024.2.4,60.01359908205119,2025-04-09 14h21.45.898930 +0100,
cube_l.png,0.1,-0.31,valid,56,56,0,up,3.1897228000016185,None,space,0.5633444000013696,None,,,,,,,,,0,56,56,56,2768.4384997000016,,,,,,,,,,,,,2768.4225700999996,2768.4384997000016,2768.4384997000016,2768.4384997000016,2771.6360437000003,,,,2771.6417413000017,2771.6534434000023,2771.6534434000023,2771.702287,2771.7025087,2771.718713800001,2771.718713800001,2771.718713800001,2771.7852029000023,2772.2856137000017,,,,,,,,,,,,,,,,,,,,,,up,3.1897228000016185,None,space,0.5633444000013696,None,,,P146,001,2025-04-09_14h21.29.838,posner_endo_new1,2024.2.4,60.01359908205119,2025-04-09 14h21.45.898930 +0100,
cube_r.png,0.1,0.31,valid,57,57,0,up,4.191389700001309,None,space,0.40941490000113845,None,,,,,,,,,0,57,57,57,2772.3013709000006,,,,,,,,,,,,,2772.2857925999997,2772.3013709000006,2772.3013709000006,2772.3013709000006,2776.497971500001,,,,2776.5037255000025,2776.5153444999996,2776.5153444999996,2776.5637693999997,2776.563993800002,2776.5801598,2776.5801598,2776.5801598,2776.647085700002,2776.997310400002,,,,,,,,,,,,,,,,,,,,,,up,4.191389700001309,None,space,0.40941490000113845,None,,,P146,001,2025-04-09_14h21.29.838,posner_endo_new1,2024.2.4,60.01359908205119,2025-04-09 14h21.45.898930 +0100,
cube_r.png,0.1,-0.31,invalid,58,58,0,up,5.847686100001738,None,space,0.4078205000005255,None,,,,,,,,,0,58,58,58,2777.0134123999997,,,,,,,,,,,,,2776.9974839999995,2777.0134123999997,2777.0134123999997,2777.0134123999997,2782.8748447,,,,2782.8807245000025,2782.8923974000027,2782.8923974000027,2782.940595600001,2782.9408132999997,2782.957280800001,2782.957280800001,2782.957280800001,2783.0237922000015,2783.3740516,,,,,,,,,,,,,,,,,,,,,,up,5.847686100001738,None,space,0.4078205000005255,None,,,P146,001,2025-04-09_14h21.29.838,posner_endo_new1,2024.2.4,60.01359908205119,2025-04-09 14h21.45.898930 +0100,
cube_l.png,0.1,0.31,invalid,59,59,0,up,6.870444800002588,None,space,0.45603269999992335,None,,,,,,,,,0,59,59,59,2783.390236200001,,,,,,,,,,,,,2783.3742279,2783.390236200001,2783.390236200001,2783.390236200001,2790.267269600001,,,,2790.273066400001,2790.2846940000018,2790.2846940000018,2790.3332205000006,2790.3334455000004,2790.3496438,2790.3496438,2790.3496438,2790.4331077000024,2790.8161954999996,,,,,,,,,,,,,,,,,,,,,,up,6.870444800002588,None,space,0.45603269999992335,None,,,P146,001,2025-04-09_14h21.29.838,posner_endo_new1,2024.2.4,60.01359908205119,2025-04-09 14h21.45.898930 +0100,
