cue_img,cue_soa,target_x,trial,thisN,thisTrialN,thisRepN,key_control2.keys,key_control2.rt,key_control2.duration,key_resp.keys,key_resp.rt,key_resp.duration,practice.thisRepN,practice.thisTrialN,practice.thisN,practice.thisIndex,block1.thisRepN,block1.thisTrialN,block1.thisN,block1.thisIndex,block2.thisRepN,block2.thisTrialN,block2.thisN,block2.thisIndex,thisRow.t,notes,instructions.started,instructions_txt.started,key_control.started,instructions.stopped,key_control.keys,key_control.rt,key_control.duration,ready.started,ready_txt.started,ready_txt.stopped,ready.stopped,fix.started,fixation.started,key_control2.started,fixation_cross.started,fix.stopped,practice.key_control2.keys,practice.key_control2.rt,practice.key_control2.duration,cue.started,cube.started,fixation_cross_cue.started,cue.stopped,target.started,fixation_target.started,fixation_cross_target.started,key_resp.started,star.started,target.stopped,practice.key_resp.keys,practice.key_resp.rt,practice.key_resp.duration,block1.key_control2.keys,block1.key_control2.rt,block1.key_control2.duration,star.stopped,fixation_target.stopped,fixation_cross_target.stopped,key_resp.stopped,block1.key_resp.keys,block1.key_resp.rt,block1.key_resp.duration,break_2.started,text.started,key_control3.started,text.stopped,break_2.stopped,key_control3.keys,key_control3.rt,key_control3.duration,block2.key_control2.keys,block2.key_control2.rt,block2.key_control2.duration,block2.key_resp.keys,block2.key_resp.rt,block2.key_resp.duration,participant,session,date,expName,psychopyVersion,frameRate,expStart,
,,,,,,,,,,,,,,,,,,,,,,,,,,,0.007394799991743639,0.021668899993528612,0.021668899993528612,769.4354319999984,up,769.4053348000016,None,,,,,,,,,,,,,,,,,,,,,,,,,,,,,,,,,,,,,,,,,,,,,,,,,,P147,001,2025-04-11_07h57.11.692,posner_endo_new1,2024.2.4,60.01867781501624,2025-04-11 07h57.17.807812 +0100,
,,,,,,,,,,,,,,,,,,,,,,,,,,,,,,,,,,769.4355123999994,769.450615099995,772.460725699988,772.4315334999992,,,,,,,,,,,,,,,,,,,,,,,,,,,,,,,,,,,,,,,,,,,,,,P147,001,2025-04-11_07h57.11.692,posner_endo_new1,2024.2.4,60.01867781501624,2025-04-11 07h57.17.807812 +0100,
cube_l.png,0.1,-0.31,valid,0,0,0,up,47.24684669999988,None,space,0.6816380000091158,None,0,0,0,8,,,,,,,,,772.460725699988,,,,,,,,,,,,,772.4460039999976,772.460725699988,772.460725699988,772.460725699988,819.7171616999985,up,47.24684669999988,None,819.7487028999894,819.7638993,819.7638993,819.782663799997,819.7831134000007,819.7991838000016,819.7991838000016,819.7991838000016,819.882325300001,820.4831339999946,space,0.6816380000091158,None,,,,,,,,,,,,,,,,,,,,,,,,,P147,001,2025-04-11_07h57.11.692,posner_endo_new1,2024.2.4,60.01867781501624,2025-04-11 07h57.17.807812 +0100,
cube_r.png,0.1,-0.31,invalid,1,1,0,up,5.3603452000097604,None,space,0.526780800006236,None,0,1,1,6,,,,,,,,,820.4986960999959,,,,,,,,,,,,,820.4833724999917,820.4986960999959,820.4986960999959,820.4986960999959,825.8607451999997,up,5.3603452000097604,None,825.8738098999893,825.8838848999876,825.8838848999876,825.926346799999,825.926664499988,825.9429858999938,825.9429858999938,825.9429858999938,826.0260482999875,826.4772670999955,space,0.526780800006236,None,,,,,,,,,,,,,,,,,,,,,,,,,P147,001,2025-04-11_07h57.11.692,posner_endo_new1,2024.2.4,60.01867781501624,2025-04-11 07h57.17.807812 +0100,
cube_r.png,0.1,-0.31,invalid,2,2,0,up,5.502776399996947,None,space,0.4892601999890758,None,0,2,2,2,,,,,,,,,826.4924084999948,,,,,,,,,,,,,826.4775083999994,826.4924084999948,826.4924084999948,826.4924084999948,832.0046308999881,up,5.502776399996947,None,832.0140634999989,832.024462699992,832.024462699992,832.0704560000013,832.0707640999899,832.0868646999879,832.0868646999879,832.0868646999879,832.1699568999902,832.5870074999984,space,0.4892601999890758,None,,,,,,,,,,,,,,,,,,,,,,,,,P147,001,2025-04-11_07h57.11.692,posner_endo_new1,2024.2.4,60.01867781501624,2025-04-11 07h57.17.807812 +0100,
cube_r.png,0.1,0.31,valid,3,3,0,up,9.488507400004892,None,space,0.5186250999977347,None,0,3,3,7,,,,,,,,,832.602773599996,,,,,,,,,,,,,832.5872482999985,832.602773599996,832.602773599996,832.602773599996,842.0941204999981,up,9.488507400004892,None,842.1035754999903,842.1139127999922,842.1139127999922,842.1600091,842.1603210999892,842.1764882999996,842.1764882999996,842.1764882999996,842.2430863999907,842.7099578999914,space,0.5186250999977347,None,,,,,,,,,,,,,,,,,,,,,,,,,P147,001,2025-04-11_07h57.11.692,posner_endo_new1,2024.2.4,60.01867781501624,2025-04-11 07h57.17.807812 +0100,
cube_l.png,0.1,-0.31,valid,4,4,0,up,22.325938900001347,None,space,0.4155871999973897,None,0,4,4,0,,,,,,,,,842.7259495999897,,,,,,,,,,,,,842.7101980000007,842.7259495999897,842.7259495999897,842.7259495999897,865.0560272000002,up,22.325938900001347,None,865.0783737999882,865.090703599999,865.090703599999,865.1196205999877,865.1200229999959,865.1359806999972,865.1359806999972,865.1359806999972,865.2192394000012,865.5534757999994,space,0.4155871999973897,None,,,,,,,,,,,,,,,,,,,,,,,,,P147,001,2025-04-11_07h57.11.692,posner_endo_new1,2024.2.4,60.01867781501624,2025-04-11 07h57.17.807812 +0100,
cube_r.png,0.1,0.31,valid,5,5,0,up,15.37039540000842,None,space,0.6289837000076659,None,0,5,5,10,,,,,,,,,865.5693063999934,,,,,,,,,,,,,865.5536865999893,865.5693063999934,865.5693063999934,865.5693063999934,880.9560257999983,up,15.37039540000842,None,880.9781765999942,880.989674899989,880.989674899989,881.0198001999961,881.0201459999953,881.0366555999935,881.0366555999935,881.0366555999935,881.1195907999936,881.6706142999901,space,0.6289837000076659,None,,,,,,,,,,,,,,,,,,,,,,,,,P147,001,2025-04-11_07h57.11.692,posner_endo_new1,2024.2.4,60.01867781501624,2025-04-11 07h57.17.807812 +0100,
cube_r.png,0.1,-0.31,invalid,6,6,0,up,5.621749599988107,None,space,0.5247972000070149,None,0,6,6,9,,,,,,,,,881.6857257999945,,,,,,,,,,,,,881.6708825999958,881.6857257999945,881.6857257999945,881.6857257999945,887.3148430000001,up,5.621749599988107,None,887.3261589999893,887.3365789999953,887.3365789999953,887.3803681999998,887.3807208999933,887.3966472999891,887.3966472999891,887.3966472999891,887.4801939999888,887.9305908999959,space,0.5247972000070149,None,,,,,,,,,,,,,,,,,,,,,,,,,P147,001,2025-04-11_07h57.11.692,posner_endo_new1,2024.2.4,60.01867781501624,2025-04-11 07h57.17.807812 +0100,
cube_l.png,0.1,-0.31,valid,7,7,0,up,5.64916689999518,None,space,0.43245710000337567,None,0,7,7,4,,,,,,,,,887.9463276999886,,,,,,,,,,,,,887.9308624999976,887.9463276999886,887.9463276999886,887.9463276999886,893.6083226999908,up,5.64916689999518,None,893.6195660999947,893.6297479999921,893.6297479999921,893.6741318999993,893.6744827999937,893.6902593999985,893.6902593999985,893.6902593999985,893.7738943000004,894.1247984999936,space,0.43245710000337567,None,,,,,,,,,,,,,,,,,,,,,,,,,P147,001,2025-04-11_07h57.11.692,posner_endo_new1,2024.2.4,60.01867781501624,2025-04-11 07h57.17.807812 +0100,
cube_l.png,0.1,0.31,invalid,8,8,0,up,7.679943700000877,None,space,0.4374573999957647,None,0,8,8,5,,,,,,,,,894.1397337999952,,,,,,,,,,,,,894.1250714999915,894.1397337999952,894.1397337999952,894.1397337999952,901.8333373999922,up,7.679943700000877,None,901.8447082999919,901.8550958999986,901.8550958999986,901.898752299996,901.8991083000001,901.9151056999981,901.9151056999981,901.9151056999981,901.9986689999932,902.366089099989,space,0.4374573999957647,None,,,,,,,,,,,,,,,,,,,,,,,,,P147,001,2025-04-11_07h57.11.692,posner_endo_new1,2024.2.4,60.01867781501624,2025-04-11 07h57.17.807812 +0100,
cube_l.png,0.1,0.31,invalid,9,9,0,up,8.662101200010511,None,space,0.4042509999999311,None,0,9,9,1,,,,,,,,,902.38129569999,,,,,,,,,,,,,902.3663670999958,902.38129569999,902.38129569999,902.38129569999,911.0571851999994,up,8.662101200010511,None,911.0684735999967,911.0788207000005,911.0788207000005,911.1228396999941,911.1231928999914,911.1389664999879,911.1389664999879,911.1389664999879,911.2223616999981,911.5567067999946,space,0.4042509999999311,None,,,,,,,,,,,,,,,,,,,,,,,,,P147,001,2025-04-11_07h57.11.692,posner_endo_new1,2024.2.4,60.01867781501624,2025-04-11 07h57.17.807812 +0100,
cube_r.png,0.1,10,catch,10,10,0,up,10.671783900004812,None,space,0.38984139999956824,None,0,10,10,3,,,,,,,,,911.5719739999913,,,,,,,,,,,,,911.5569841999968,911.5719739999913,911.5719739999913,911.5719739999913,922.2458676999959,up,10.671783900004812,None,922.2572580999986,922.2674142999895,922.2674142999895,922.3113603999955,922.311632500001,922.3277318999899,922.3277318999899,922.3277318999899,922.4107737000013,922.7301380999997,space,0.38984139999956824,None,,,,,,,,,,,,,,,,,,,,,,,,,P147,001,2025-04-11_07h57.11.692,posner_endo_new1,2024.2.4,60.01867781501624,2025-04-11 07h57.17.807812 +0100,
,,,,,,,,,,,,,,,,,,,,,,,,,,,,,,,,,,922.7305284999893,922.7442397999985,925.7737278999994,925.7258172000002,,,,,,,,,,,,,,,,,,,,,,,,,,,,,,,,,,,,,,,,,,,,,,P147,001,2025-04-11_07h57.11.692,posner_endo_new1,2024.2.4,60.01867781501624,2025-04-11 07h57.17.807812 +0100,
cube_l.png,0.1,10,catch,0,0,0,up,43.69340899999952,None,None,,,,,,,0,0,0,0,,,,,925.7737278999994,,,,,,,,,,,,,925.764460499995,925.7737278999994,925.7737278999994,925.7737278999994,969.4805618999962,,,,969.4902339999971,969.5005819999933,969.5005819999933,969.5460932999995,969.5464234999963,969.5627821999951,969.5627821999951,969.5627821999951,969.6458024999883,972.5604833999969,,,,up,43.69340899999952,None,971.6604137999966,972.5764804999926,972.5764804999926,972.5764804999926,None,,,,,,,,,,,,,,,,,P147,001,2025-04-11_07h57.11.692,posner_endo_new1,2024.2.4,60.01867781501624,2025-04-11 07h57.17.807812 +0100,
cube_l.png,0.1,10,catch,1,1,0,up,2.8115059999981895,None,None,,,,,,,0,1,1,1,,,,,972.5764804999926,,,,,,,,,,,,,972.5607212999894,972.5764804999926,972.5764804999926,972.5764804999926,975.3912880999997,,,,975.4007770999888,975.4109828999935,975.4109828999935,975.4566705999896,975.4569855000009,975.4734957999899,975.4734957999899,975.4734957999899,975.5566523999878,978.4708920999983,,,,up,2.8115059999981895,None,977.5710943000013,978.486834299998,978.486834299998,978.486834299998,None,,,,,,,,,,,,,,,,,P147,001,2025-04-11_07h57.11.692,posner_endo_new1,2024.2.4,60.01867781501624,2025-04-11 07h57.17.807812 +0100,
cube_l.png,0.1,0.31,invalid,2,2,0,up,7.2440977999940515,None,space,0.4485984000057215,None,,,,,0,2,2,2,,,,,978.486834299998,,,,,,,,,,,,,978.4711309999984,978.486834299998,978.486834299998,978.486834299998,985.7470245000004,,,,985.755370599989,985.7659312999895,985.7659312999895,985.8130372999876,985.8132742000016,985.8295378999901,985.8295378999901,985.8295378999901,985.9129076999961,986.280248199997,,,,up,7.2440977999940515,None,,,,,space,0.4485984000057215,None,,,,,,,,,,,,,,,P147,001,2025-04-11_07h57.11.692,posner_endo_new1,2024.2.4,60.01867781501624,2025-04-11 07h57.17.807812 +0100,
cube_l.png,0.1,0.31,invalid,3,3,0,up,8.395579500007443,None,space,0.43694340001093224,None,,,,,0,3,3,3,,,,,986.2955520999967,,,,,,,,,,,,,986.2804250999907,986.2955520999967,986.2955520999967,986.2955520999967,994.7063552999898,,,,994.7266372999875,994.7371582999913,994.7371582999913,994.7703054000012,994.7707458999939,994.7868010999955,994.7868010999955,994.7868010999955,994.870038699999,995.2376854999893,,,,up,8.395579500007443,None,,,,,space,0.43694340001093224,None,,,,,,,,,,,,,,,P147,001,2025-04-11_07h57.11.692,posner_endo_new1,2024.2.4,60.01867781501624,2025-04-11 07h57.17.807812 +0100,
cube_l.png,0.1,-0.31,valid,4,4,0,up,4.278352000008454,None,space,0.3756518000009237,None,,,,,0,4,4,4,,,,,995.2528586999979,,,,,,,,,,,,,995.2379308999953,995.2528586999979,995.2528586999979,995.2528586999979,999.5333390000014,,,,999.5428199999878,999.5531745999906,999.5531745999906,999.598972199994,999.5992954999965,999.6153576999932,999.6153576999932,999.6153576999932,999.6982971999969,999.9991579999914,,,,up,4.278352000008454,None,,,,,space,0.3756518000009237,None,,,,,,,,,,,,,,,P147,001,2025-04-11_07h57.11.692,posner_endo_new1,2024.2.4,60.01867781501624,2025-04-11 07h57.17.807812 +0100,
cube_r.png,0.1,-0.31,invalid,5,5,0,up,6.41300400000182,None,space,0.442941500004963,None,,,,,0,5,5,5,,,,,1000.014706099988,,,,,,,,,,,,,999.9994215999905,1000.014706099988,1000.014706099988,1000.014706099988,1006.442736699988,,,,1006.452195299993,1006.462228599994,1006.462228599994,1006.5084728999936,1006.5087973999907,1006.5247103000002,1006.5247103000002,1006.5247103000002,1006.591379599995,1006.9757564999891,,,,up,6.41300400000182,None,,,,,space,0.442941500004963,None,,,,,,,,,,,,,,,P147,001,2025-04-11_07h57.11.692,posner_endo_new1,2024.2.4,60.01867781501624,2025-04-11 07h57.17.807812 +0100,
cube_r.png,0.1,0.31,valid,6,6,0,up,11.460598200006643,None,space,0.4138405999983661,None,,,,,0,6,6,6,,,,,1006.9912245000014,,,,,,,,,,,,,1006.9760133999953,1006.9912245000014,1006.9912245000014,1006.9912245000014,1018.4638622999919,,,,1018.4733612999989,1018.4836509000015,1018.4836509000015,1018.5295900999918,1018.5299119999981,1018.5457779999997,1018.5457779999997,1018.5457779999997,1018.6291223000007,1018.9635769000015,,,,up,11.460598200006643,None,,,,,space,0.4138405999983661,None,,,,,,,,,,,,,,,P147,001,2025-04-11_07h57.11.692,posner_endo_new1,2024.2.4,60.01867781501624,2025-04-11 07h57.17.807812 +0100,
cube_r.png,0.1,-0.31,invalid,7,7,0,up,14.520693499987829,None,space,0.4041215000033844,None,,,,,0,7,7,7,,,,,1018.9786875999998,,,,,,,,,,,,,1018.963832399997,1018.9786875999998,1018.9786875999998,1018.9786875999998,1033.5151283999876,,,,1033.5246957999916,1033.5348861999955,1033.5348861999955,1033.580776399991,1033.58109349999,1033.5970608999924,1033.5970608999924,1033.5970608999924,1033.6802854999987,1034.0142755999987,,,,up,14.520693499987829,None,,,,,space,0.4041215000033844,None,,,,,,,,,,,,,,,P147,001,2025-04-11_07h57.11.692,posner_endo_new1,2024.2.4,60.01867781501624,2025-04-11 07h57.17.807812 +0100,
cube_l.png,0.1,-0.31,valid,8,8,0,up,16.22978380000859,None,space,0.3587836999940919,None,,,,,0,8,8,8,,,,,1034.0299393999885,,,,,,,,,,,,,1034.0145283999882,1034.0299393999885,1034.0299393999885,1034.0299393999885,1050.264464699998,,,,1050.274025199993,1050.28437329999,1050.28437329999,1050.330192399997,1050.3305111999944,1050.346863499988,1050.346863499988,1050.346863499988,1050.4297493999911,1050.7137462999963,,,,up,16.22978380000859,None,,,,,space,0.3587836999940919,None,,,,,,,,,,,,,,,P147,001,2025-04-11_07h57.11.692,posner_endo_new1,2024.2.4,60.01867781501624,2025-04-11 07h57.17.807812 +0100,
cube_r.png,0.1,-0.31,invalid,9,9,0,up,4.809221399991657,None,space,0.4141810000000987,None,,,,,0,9,9,9,,,,,1050.7298337999964,,,,,,,,,,,,,1050.7139948999975,1050.7298337999964,1050.7298337999964,1050.7298337999964,1055.542396799996,,,,1055.5517047999892,1055.5618048999895,1055.5618048999895,1055.6081340999954,1055.6084424,1055.6247412999946,1055.6247412999946,1055.6247412999946,1055.708111,1056.0422390999884,,,,up,4.809221399991657,None,,,,,space,0.4141810000000987,None,,,,,,,,,,,,,,,P147,001,2025-04-11_07h57.11.692,posner_endo_new1,2024.2.4,60.01867781501624,2025-04-11 07h57.17.807812 +0100,
cube_l.png,0.1,0.31,invalid,10,10,0,up,2.9854567000002135,None,space,0.5203140999947209,None,,,,,0,10,10,10,,,,,1056.0575950999919,,,,,,,,,,,,,1056.0424869999988,1056.0575950999919,1056.0575950999919,1056.0575950999919,1059.0556899999938,,,,1059.0649795999925,1059.0751496999874,1059.0751496999874,1059.1210840999993,1059.121389299995,1059.1378039999981,1059.1378039999981,1059.1378039999981,1059.2208524999878,1059.6715098999994,,,,up,2.9854567000002135,None,,,,,space,0.5203140999947209,None,,,,,,,,,,,,,,,P147,001,2025-04-11_07h57.11.692,posner_endo_new1,2024.2.4,60.01867781501624,2025-04-11 07h57.17.807812 +0100,
cube_r.png,0.1,-0.31,invalid,11,11,0,up,8.052856199996313,None,space,0.36118020000867546,None,,,,,0,11,11,11,,,,,1059.6874253999995,,,,,,,,,,,,,1059.6717568999884,1059.6874253999995,1059.6874253999995,1059.6874253999995,1067.7465070999897,,,,1067.7557805999968,1067.7658920999966,1067.7658920999966,1067.8122295999929,1067.812546199988,1067.8290766999999,1067.8290766999999,1067.8290766999999,1067.8953834999993,1068.1961794999952,,,,up,8.052856199996313,None,,,,,space,0.36118020000867546,None,,,,,,,,,,,,,,,P147,001,2025-04-11_07h57.11.692,posner_endo_new1,2024.2.4,60.01867781501624,2025-04-11 07h57.17.807812 +0100,
cube_r.png,0.1,0.31,valid,12,12,0,up,6.079790499992669,None,space,0.4328652000112925,None,,,,,0,12,12,12,,,,,1068.2120249,,,,,,,,,,,,,1068.1964324,1068.2120249,1068.2120249,1068.2120249,1074.3064001999883,,,,1074.3148262999894,1074.325094499989,1074.325094499989,1074.3723907999956,1074.372643099996,1074.388690199994,1074.388690199994,1074.388690199994,1074.4556427999923,1074.8226216999901,,,,up,6.079790499992669,None,,,,,space,0.4328652000112925,None,,,,,,,,,,,,,,,P147,001,2025-04-11_07h57.11.692,posner_endo_new1,2024.2.4,60.01867781501624,2025-04-11 07h57.17.807812 +0100,
cube_l.png,0.1,10,catch,13,13,0,up,9.181137299994589,None,None,,,,,,,0,13,13,13,,,,,1074.8385234999878,,,,,,,,,,,,,1074.8228037999943,1074.8385234999878,1074.8385234999878,1074.8385234999878,1084.0317567999882,,,,1084.0542853999941,1084.0664373999898,1084.0664373999898,1084.095499099989,1084.0959030999948,1084.111890100001,1084.111890100001,1084.111890100001,1084.1952822999883,1087.109713599988,,,,up,9.181137299994589,None,1086.2097624999878,1087.1255460999964,1087.1255460999964,1087.1255460999964,None,,,,,,,,,,,,,,,,,P147,001,2025-04-11_07h57.11.692,posner_endo_new1,2024.2.4,60.01867781501624,2025-04-11 07h57.17.807812 +0100,
cube_r.png,0.1,-0.31,invalid,14,14,0,up,0.8301093000045512,None,space,0.2744486000010511,None,,,,,0,14,14,14,,,,,1087.1255460999964,,,,,,,,,,,,,1087.1100133,1087.1255460999964,1087.1255460999964,1087.1255460999964,1087.9593924999936,,,,1087.971895099996,1087.9819519999874,1087.9819519999874,1088.0247937999957,1088.0251864999882,1088.0411973999871,1088.0411973999871,1088.0411973999871,1088.124484999993,1088.3258390999981,,,,up,0.8301093000045512,None,,,,,space,0.2744486000010511,None,,,,,,,,,,,,,,,P147,001,2025-04-11_07h57.11.692,posner_endo_new1,2024.2.4,60.01867781501624,2025-04-11 07h57.17.807812 +0100,
cube_l.png,0.1,-0.31,valid,15,15,0,up,3.198607300000731,None,space,0.4607743999949889,None,,,,,0,15,15,15,,,,,1088.3408991999895,,,,,,,,,,,,,1088.3261625000014,1088.3408991999895,1088.3408991999895,1088.3408991999895,1091.5556997999956,,,,1091.5680300999957,1091.5780750999984,1091.5780750999984,1091.6210789999895,1091.621475299995,1091.6376052999985,1091.6376052999985,1091.6376052999985,1091.7208275000012,1092.1050588999933,,,,up,3.198607300000731,None,,,,,space,0.4607743999949889,None,,,,,,,,,,,,,,,P147,001,2025-04-11_07h57.11.692,posner_endo_new1,2024.2.4,60.01867781501624,2025-04-11 07h57.17.807812 +0100,
cube_r.png,0.1,10,catch,16,16,0,up,2.531238299998222,None,None,,,,,,,0,16,16,16,,,,,1092.1204633000016,,,,,,,,,,,,,1092.105395999999,1092.1204633000016,1092.1204633000016,1092.1204633000016,1094.6689738999994,,,,1094.681555999996,1094.691409799998,1094.691409799998,1094.7346185999922,1094.7350215999904,1094.7510133999895,1094.7510133999895,1094.7510133999895,1094.8342961999879,1097.7488983999938,,,,up,2.531238299998222,None,1096.8488472999888,1097.7645765999914,1097.7645765999914,1097.7645765999914,None,,,,,,,,,,,,,,,,,P147,001,2025-04-11_07h57.11.692,posner_endo_new1,2024.2.4,60.01867781501624,2025-04-11 07h57.17.807812 +0100,
cube_r.png,0.1,10,catch,17,17,0,up,1.014522900004522,None,None,,,,,,,0,17,17,17,,,,,1097.7645765999914,,,,,,,,,,,,,1097.7491972999997,1097.7645765999914,1097.7645765999914,1097.7645765999914,1098.7816158999922,,,,1098.7940413999895,1098.8041211999953,1098.8041211999953,1098.8469960999937,1098.8473885999992,1098.8636211999983,1098.8636211999983,1098.8636211999983,1098.946714699996,1101.8612324999995,,,,up,1.014522900004522,None,1100.9612917999912,1101.8771314999904,1101.8771314999904,1101.8771314999904,None,,,,,,,,,,,,,,,,,P147,001,2025-04-11_07h57.11.692,posner_endo_new1,2024.2.4,60.01867781501624,2025-04-11 07h57.17.807812 +0100,
cube_l.png,0.1,0.31,invalid,18,18,0,up,5.3263219999935245,None,space,0.5178037000005133,None,,,,,0,18,18,18,,,,,1101.8771314999904,,,,,,,,,,,,,1101.861542499988,1101.8771314999904,1101.8771314999904,1101.8771314999904,1107.2066575999925,,,,1107.2191142999945,1107.2297395999922,1107.2297395999922,1107.2717455999955,1107.2720170999964,1107.28834069999,1107.28834069999,1107.28834069999,1107.371478999994,1107.8219057999959,,,,up,5.3263219999935245,None,,,,,space,0.5178037000005133,None,,,,,,,,,,,,,,,P147,001,2025-04-11_07h57.11.692,posner_endo_new1,2024.2.4,60.01867781501624,2025-04-11 07h57.17.807812 +0100,
cube_l.png,0.1,10,catch,19,19,0,up,3.932891300006304,None,None,,,,,,,0,19,19,19,,,,,1107.8381212999957,,,,,,,,,,,,,1107.8221177999949,1107.8381212999957,1107.8381212999957,1107.8381212999957,1111.784618199992,,,,1111.7923331999918,1111.8034455000015,1111.8034455000015,1111.8503025999962,1111.8505872999958,1111.8671769999928,1111.8671769999928,1111.8671769999928,1111.9340035999921,1114.8646739999967,,,,up,3.932891300006304,None,1113.9482509999943,1114.8807391999871,1114.8807391999871,1114.8807391999871,None,,,,,,,,,,,,,,,,,P147,001,2025-04-11_07h57.11.692,posner_endo_new1,2024.2.4,60.01867781501624,2025-04-11 07h57.17.807812 +0100,
cube_l.png,0.1,0.31,invalid,20,20,0,up,12.554720200001611,None,space,0.46080020000226796,None,,,,,0,20,20,20,,,,,1114.8807391999871,,,,,,,,,,,,,1114.864957400001,1114.8807391999871,1114.8807391999871,1114.8807391999871,1127.4525041000015,,,,1127.4638728999998,1127.4738172999932,1127.4738172999932,1127.5177138,1127.51807559999,1127.5344044999947,1127.5344044999947,1127.5344044999947,1127.6174691999913,1128.0016192999901,,,,up,12.554720200001611,None,,,,,space,0.46080020000226796,None,,,,,,,,,,,,,,,P147,001,2025-04-11_07h57.11.692,posner_endo_new1,2024.2.4,60.01867781501624,2025-04-11 07h57.17.807812 +0100,
cube_l.png,0.1,-0.31,valid,21,21,0,up,2.1694725999986986,None,space,0.6821821000048658,None,,,,,0,21,21,21,,,,,1128.0174460999988,,,,,,,,,,,,,1128.0019141999946,1128.0174460999988,1128.0174460999988,1128.0174460999988,1130.1996809999982,,,,1130.2110059999977,1130.221218599996,1130.221218599996,1130.2652801999939,1130.265638500001,1130.281418499988,1130.281418499988,1130.281418499988,1130.3651347999985,1130.9657326000015,,,,up,2.1694725999986986,None,,,,,space,0.6821821000048658,None,,,,,,,,,,,,,,,P147,001,2025-04-11_07h57.11.692,posner_endo_new1,2024.2.4,60.01867781501624,2025-04-11 07h57.17.807812 +0100,
cube_r.png,0.1,0.31,valid,22,22,0,up,3.326586800001678,None,space,0.4238489999988815,None,,,,,0,22,22,22,,,,,1130.9806366999983,,,,,,,,,,,,,1130.9660233999894,1130.9806366999983,1130.9806366999983,1130.9806366999983,1134.3118975999969,,,,1134.3232443999877,1134.3336853999936,1134.3336853999936,1134.3777841999981,1134.3781471999973,1134.3943184999953,1134.3943184999953,1134.3943184999953,1134.477462099996,1134.8279617999942,,,,up,3.326586800001678,None,,,,,space,0.4238489999988815,None,,,,,,,,,,,,,,,P147,001,2025-04-11_07h57.11.692,posner_endo_new1,2024.2.4,60.01867781501624,2025-04-11 07h57.17.807812 +0100,
cube_r.png,0.1,-0.31,invalid,23,23,0,up,5.503322299991851,None,space,0.3592847999971127,None,,,,,0,23,23,23,,,,,1134.8437096999987,,,,,,,,,,,,,1134.8282601999963,1134.8437096999987,1134.8437096999987,1134.8437096999987,1140.3560209999996,,,,1140.3673033999949,1140.3775454999995,1140.3775454999995,1140.4215960000001,1140.4219535999873,1140.437697299989,1140.437697299989,1140.437697299989,1140.5213880999945,1140.8054357999936,,,,up,5.503322299991851,None,,,,,space,0.3592847999971127,None,,,,,,,,,,,,,,,P147,001,2025-04-11_07h57.11.692,posner_endo_new1,2024.2.4,60.01867781501624,2025-04-11 07h57.17.807812 +0100,
cube_r.png,0.1,0.31,valid,24,24,0,up,8.17505859999801,None,space,0.4808493000018643,None,,,,,0,24,24,24,,,,,1140.820860199994,,,,,,,,,,,,,1140.8057301999943,1140.820860199994,1140.820860199994,1140.820860199994,1148.998661199992,,,,1149.018501499988,1149.028945699989,1149.028945699989,1149.0623553999903,1149.0628042999888,1149.0788893999998,1149.0788893999998,1149.0788893999998,1149.1621053999988,1149.5632568,,,,up,8.17505859999801,None,,,,,space,0.4808493000018643,None,,,,,,,,,,,,,,,P147,001,2025-04-11_07h57.11.692,posner_endo_new1,2024.2.4,60.01867781501624,2025-04-11 07h57.17.807812 +0100,
cube_r.png,0.1,-0.31,invalid,25,25,0,up,4.488917099995888,None,space,0.3853264999925159,None,,,,,0,25,25,25,,,,,1149.5783179999999,,,,,,,,,,,,,1149.563628799995,1149.5783179999999,1149.5783179999999,1149.5783179999999,1154.0750386,,,,1154.084574499997,1154.0944477999874,1154.0944477999874,1154.1407906999957,1154.1410293999943,1154.1572928999958,1154.1572928999958,1154.1572928999958,1154.2404413999902,1154.5574167999875,,,,up,4.488917099995888,None,,,,,space,0.3853264999925159,None,,,,,,,,,,,,,,,P147,001,2025-04-11_07h57.11.692,posner_endo_new1,2024.2.4,60.01867781501624,2025-04-11 07h57.17.807812 +0100,
cube_l.png,0.1,-0.31,valid,26,26,0,up,3.7815090999938548,None,space,0.4851891999860527,None,,,,,0,26,26,26,,,,,1154.5735915999976,,,,,,,,,,,,,1154.5575938999973,1154.5735915999976,1154.5735915999976,1154.5735915999976,1158.3722025999887,,,,1158.3948835999909,1158.4065318999928,1158.4065318999928,1158.4359673,1158.436317499989,1158.4524938999966,1158.4524938999966,1158.4524938999966,1158.536209400001,1158.9535022999917,,,,up,3.7815090999938548,None,,,,,space,0.4851891999860527,None,,,,,,,,,,,,,,,P147,001,2025-04-11_07h57.11.692,posner_endo_new1,2024.2.4,60.01867781501624,2025-04-11 07h57.17.807812 +0100,
cube_r.png,0.1,0.31,valid,27,27,0,up,3.811059600004228,None,space,0.48348920000717044,None,,,,,0,27,27,27,,,,,1158.9687123999902,,,,,,,,,,,,,1158.9537928999925,1158.9687123999902,1158.9687123999902,1158.9687123999902,1162.782787499993,,,,1162.794171799993,1162.8045329999877,1162.8045329999877,1162.848203799993,1162.8485513999913,1162.8650349999953,1162.8650349999953,1162.8650349999953,1162.9481997999974,1163.3655112999986,,,,up,3.811059600004228,None,,,,,space,0.48348920000717044,None,,,,,,,,,,,,,,,P147,001,2025-04-11_07h57.11.692,posner_endo_new1,2024.2.4,60.01867781501624,2025-04-11 07h57.17.807812 +0100,
cube_r.png,0.1,10,catch,28,28,0,up,3.1100270000024466,None,None,,,,,,,0,28,28,28,,,,,1163.3811784999998,,,,,,,,,,,,,1163.3658034999971,1163.3811784999998,1163.3811784999998,1163.3811784999998,1166.4956303999934,,,,1166.505818599995,1166.5155881999963,1166.5155881999963,1166.5611977999943,1166.5614483999962,1166.5778989999963,1166.5778989999963,1166.5778989999963,1166.6608224999945,1169.5764134999918,,,,up,3.1100270000024466,None,1168.6759580999933,1169.591658099991,1169.591658099991,1169.591658099991,None,,,,,,,,,,,,,,,,,P147,001,2025-04-11_07h57.11.692,posner_endo_new1,2024.2.4,60.01867781501624,2025-04-11 07h57.17.807812 +0100,
cube_r.png,0.1,0.31,valid,29,29,0,up,4.963503999999375,None,space,0.46319569999468513,None,,,,,0,29,29,29,,,,,1169.591658099991,,,,,,,,,,,,,1169.5769681999955,1169.591658099991,1169.591658099991,1169.591658099991,1174.5722514999943,,,,1174.5945786999946,1174.6066403000004,1174.6066403000004,1174.6363427999895,1174.6366734999901,1174.653022899991,1174.653022899991,1174.653022899991,1174.7363413999992,1175.1199500999937,,,,up,4.963503999999375,None,,,,,space,0.46319569999468513,None,,,,,,,,,,,,,,,P147,001,2025-04-11_07h57.11.692,posner_endo_new1,2024.2.4,60.01867781501624,2025-04-11 07h57.17.807812 +0100,
cube_r.png,0.1,0.31,valid,30,30,0,up,2.715987800009316,None,space,0.40348559999256395,None,,,,,0,30,30,30,,,,,1175.1358390999958,,,,,,,,,,,,,1175.1202248999907,1175.1358390999958,1175.1358390999958,1175.1358390999958,1177.8675325999939,,,,1177.8783656999876,1177.8885072999983,1177.8885072999983,1177.9331786999974,1177.933522499996,1177.9494592999981,1177.9494592999981,1177.9494592999981,1178.0324962000013,1178.3670084999903,,,,up,2.715987800009316,None,,,,,space,0.40348559999256395,None,,,,,,,,,,,,,,,P147,001,2025-04-11_07h57.11.692,posner_endo_new1,2024.2.4,60.01867781501624,2025-04-11 07h57.17.807812 +0100,
cube_l.png,0.1,-0.31,valid,31,31,0,up,2.5253529000037815,None,space,0.4824986000021454,None,,,,,0,31,31,31,,,,,1178.3824793999956,,,,,,,,,,,,,1178.3672761999915,1178.3824793999956,1178.3824793999956,1178.3824793999956,1180.9142258999927,,,,1180.9245312999992,1180.934760499993,1180.934760499993,1180.980074799998,1180.9804038000002,1180.9963825999876,1180.9963825999876,1180.9963825999876,1181.079889799992,1181.4803404999984,,,,up,2.5253529000037815,None,,,,,space,0.4824986000021454,None,,,,,,,,,,,,,,,P147,001,2025-04-11_07h57.11.692,posner_endo_new1,2024.2.4,60.01867781501624,2025-04-11 07h57.17.807812 +0100,
cube_r.png,0.1,0.31,valid,32,32,0,up,2.827711299993098,None,space,0.40571469999849796,None,,,,,0,32,32,32,,,,,1181.4959162000014,,,,,,,,,,,,,1181.4806100999995,1181.4959162000014,1181.4959162000014,1181.4959162000014,1184.3274107999896,,,,1184.3380909999978,1184.3485109999892,1184.3485109999892,1184.3928383999882,1184.3931822000013,1184.4096895999974,1184.4096895999974,1184.4096895999974,1184.492833899989,1184.8268593999965,,,,up,2.827711299993098,None,,,,,space,0.40571469999849796,None,,,,,,,,,,,,,,,P147,001,2025-04-11_07h57.11.692,posner_endo_new1,2024.2.4,60.01867781501624,2025-04-11 07h57.17.807812 +0100,
cube_r.png,0.1,-0.31,invalid,33,33,0,up,2.4088101999950595,None,space,0.3769114000024274,None,,,,,0,33,33,33,,,,,1184.8426239999972,,,,,,,,,,,,,1184.8271410000016,1184.8426239999972,1184.8426239999972,1184.8426239999972,1187.2575451999874,,,,1187.266423299996,1187.2763475999964,1187.2763475999964,1187.323786199995,1187.3243489999877,1187.3399971999897,1187.3399971999897,1187.3399971999897,1187.4065998000005,1187.724876799999,,,,up,2.4088101999950595,None,,,,,space,0.3769114000024274,None,,,,,,,,,,,,,,,P147,001,2025-04-11_07h57.11.692,posner_endo_new1,2024.2.4,60.01867781501624,2025-04-11 07h57.17.807812 +0100,
cube_r.png,0.1,10,catch,34,34,0,up,2.695475999993505,None,space,0.33003300000564195,None,,,,,0,34,34,34,,,,,1187.7396821000002,,,,,,,,,,,,,1187.725351199988,1187.7396821000002,1187.7396821000002,1187.7396821000002,1190.4389659000008,,,,1190.4571081999893,1190.4685514000012,1190.4685514000012,1190.5033067999902,1190.5036655000004,1190.519977399992,1190.519977399992,1190.519977399992,1190.6029998000013,1190.8544331000012,,,,up,2.695475999993505,None,,,,,space,0.33003300000564195,None,,,,,,,,,,,,,,,P147,001,2025-04-11_07h57.11.692,posner_endo_new1,2024.2.4,60.01867781501624,2025-04-11 07h57.17.807812 +0100,
cube_r.png,0.1,0.31,valid,35,35,0,up,9.685564600004,None,space,0.46654040001158137,None,,,,,0,35,35,35,,,,,1190.8696252999944,,,,,,,,,,,,,1190.8547240999906,1190.8696252999944,1190.8696252999944,1190.8696252999944,1200.5607309999905,,,,1200.5721066999977,1200.5824939000013,1200.5824939000013,1200.626405899995,1200.6267636999983,1200.6427345999982,1200.6427345999982,1200.6427345999982,1200.7260776999901,1201.1105166999914,,,,up,9.685564600004,None,,,,,space,0.46654040001158137,None,,,,,,,,,,,,,,,P147,001,2025-04-11_07h57.11.692,posner_endo_new1,2024.2.4,60.01867781501624,2025-04-11 07h57.17.807812 +0100,
cube_r.png,0.1,-0.31,invalid,36,36,0,up,2.63834429999406,None,space,0.42834689999290276,None,,,,,0,36,36,36,,,,,1201.1255391000013,,,,,,,,,,,,,1201.1108167999919,1201.1255391000013,1201.1255391000013,1201.1255391000013,1203.7743910999998,,,,1203.7856663999992,1203.7960672999907,1203.7960672999907,1203.8396935999917,1203.8400535999972,1203.8564475999883,1203.8564475999883,1203.8564475999883,1203.9396420999983,1204.290213100001,,,,up,2.63834429999406,None,,,,,space,0.42834689999290276,None,,,,,,,,,,,,,,,P147,001,2025-04-11_07h57.11.692,posner_endo_new1,2024.2.4,60.01867781501624,2025-04-11 07h57.17.807812 +0100,
cube_l.png,0.1,0.31,invalid,37,37,0,up,2.2895037999987835,None,space,0.5168978000001516,None,,,,,0,37,37,37,,,,,1204.3060498999985,,,,,,,,,,,,,1204.2905048999964,1204.3060498999985,1204.3060498999985,1204.3060498999985,1206.6049070000008,,,,1206.6154108999908,1206.6250705999992,1206.6250705999992,1206.670386999991,1206.6706369999883,1206.686900399989,1206.686900399989,1206.686900399989,1206.770239199992,1207.2062359999982,,,,up,2.2895037999987835,None,,,,,space,0.5168978000001516,None,,,,,,,,,,,,,,,P147,001,2025-04-11_07h57.11.692,posner_endo_new1,2024.2.4,60.01867781501624,2025-04-11 07h57.17.807812 +0100,
cube_l.png,0.1,0.31,invalid,38,38,0,up,2.3993178000091575,None,space,0.5097132999944733,None,,,,,0,38,38,38,,,,,1207.2202639999887,,,,,,,,,,,,,1207.2068384000013,1207.2202639999887,1207.2202639999887,1207.2202639999887,1209.6366661999928,,,,1209.6588123999973,1209.6703990999958,1209.6703990999958,1209.7001452999975,1209.7005018999917,1209.7165995999967,1209.7165995999967,1209.7165995999967,1209.8000589000003,1210.2345093999902,,,,up,2.3993178000091575,None,,,,,space,0.5097132999944733,None,,,,,,,,,,,,,,,P147,001,2025-04-11_07h57.11.692,posner_endo_new1,2024.2.4,60.01867781501624,2025-04-11 07h57.17.807812 +0100,
cube_r.png,0.1,0.31,valid,39,39,0,up,2.7538451999862446,None,space,0.35269300000800285,None,,,,,0,39,39,39,,,,,1210.2498525999981,,,,,,,,,,,,,1210.2348020999925,1210.2498525999981,1210.2498525999981,1210.2498525999981,1213.0147476999991,,,,1213.026132599989,1213.0364174999995,1213.0364174999995,1213.0803414999973,1213.0807128999877,1213.0970579999994,1213.0970579999994,1213.0970579999994,1213.1798398999963,1213.4645557999902,,,,up,2.7538451999862446,None,,,,,space,0.35269300000800285,None,,,,,,,,,,,,,,,P147,001,2025-04-11_07h57.11.692,posner_endo_new1,2024.2.4,60.01867781501624,2025-04-11 07h57.17.807812 +0100,
cube_l.png,0.1,0.31,invalid,40,40,0,up,2.884204600006342,None,space,0.5195644000050379,None,,,,,0,40,40,40,,,,,1213.479827499992,,,,,,,,,,,,,1213.4648521999916,1213.479827499992,1213.479827499992,1213.479827499992,1216.377842499991,,,,1216.389259299991,1216.3995544999925,1216.3995544999925,1216.4436894999963,1216.444057399989,1216.460256099992,1216.460256099992,1216.460256099992,1216.5432616999897,1216.9942758999969,,,,up,2.884204600006342,None,,,,,space,0.5195644000050379,None,,,,,,,,,,,,,,,P147,001,2025-04-11_07h57.11.692,posner_endo_new1,2024.2.4,60.01867781501624,2025-04-11 07h57.17.807812 +0100,
cube_l.png,0.1,10,catch,41,41,0,up,2.5220090999937383,None,None,,,,,,,0,41,41,41,,,,,1217.0093089000002,,,,,,,,,,,,,1216.9945699999953,1217.0093089000002,1217.0093089000002,1217.0093089000002,1219.541666899997,,,,1219.5530075999995,1219.5632591999893,1219.5632591999893,1219.6072279999935,1219.6075909999927,1219.6233090999885,1219.6233090999885,1219.6233090999885,1219.706857799989,1222.6213657999906,,,,up,2.5220090999937383,None,1221.7210935999901,1222.6368580999988,1222.6368580999988,1222.6368580999988,None,,,,,,,,,,,,,,,,,P147,001,2025-04-11_07h57.11.692,posner_endo_new1,2024.2.4,60.01867781501624,2025-04-11 07h57.17.807812 +0100,
cube_l.png,0.1,-0.31,valid,42,42,0,up,0.7189975999935996,None,space,0.37896690001070965,None,,,,,0,42,42,42,,,,,1222.6368580999988,,,,,,,,,,,,,1222.6216392999922,1222.6368580999988,1222.6368580999988,1222.6368580999988,1223.3707046999916,,,,1223.3819597999973,1223.3924116999988,1223.3924116999988,1223.4365718999907,1223.4369417999987,1223.4527205999912,1223.4527205999912,1223.4527205999912,1223.5359246000007,1223.8371022999927,,,,up,0.7189975999935996,None,,,,,space,0.37896690001070965,None,,,,,,,,,,,,,,,P147,001,2025-04-11_07h57.11.692,posner_endo_new1,2024.2.4,60.01867781501624,2025-04-11 07h57.17.807812 +0100,
cube_l.png,0.1,10,catch,43,43,0,up,2.6072179000038886,None,None,,,,,,,0,43,43,43,,,,,1223.8527055000013,,,,,,,,,,,,,1223.8373915999982,1223.8527055000013,1223.8527055000013,1223.8527055000013,1226.4681399999972,,,,1226.4769915999932,1226.4867883999977,1226.4867883999977,1226.5334917,1226.5337415999966,1226.5495057999942,1226.5495057999942,1226.5495057999942,1226.6331920999946,1229.5475447999925,,,,up,2.6072179000038886,None,1228.647683999996,1229.5634237999911,1229.5634237999911,1229.5634237999911,None,,,,,,,,,,,,,,,,,P147,001,2025-04-11_07h57.11.692,posner_endo_new1,2024.2.4,60.01867781501624,2025-04-11 07h57.17.807812 +0100,
cube_l.png,0.1,0.31,invalid,44,44,0,up,0.13577899998927023,None,space,0.41142849999596365,None,,,,,0,44,44,44,,,,,1229.5634237999911,,,,,,,,,,,,,1229.5478162999934,1229.5634237999911,1229.5634237999911,1229.5634237999911,1229.7142102999933,,,,1229.725524900001,1229.7357260999997,1229.7357260999997,1229.7800983999914,1229.780453799991,1229.7964978999953,1229.7964978999953,1229.7964978999953,1229.8798458999954,1230.2137606999895,,,,up,0.13577899998927023,None,,,,,space,0.41142849999596365,None,,,,,,,,,,,,,,,P147,001,2025-04-11_07h57.11.692,posner_endo_new1,2024.2.4,60.01867781501624,2025-04-11 07h57.17.807812 +0100,
cube_l.png,0.1,0.31,invalid,45,45,0,up,2.6381290999997873,None,space,0.457213599991519,None,,,,,0,45,45,45,,,,,1230.2294013999926,,,,,,,,,,,,,1230.2140470999875,1230.2294013999926,1230.2294013999926,1230.2294013999926,1232.8778896000003,,,,1232.8890593999968,1232.8993601999973,1232.8993601999973,1232.9435023999977,1232.9438483999984,1232.9599720999977,1232.9599720999977,1232.9599720999977,1233.0431380999944,1233.4271167999977,,,,up,2.6381290999997873,None,,,,,space,0.457213599991519,None,,,,,,,,,,,,,,,P147,001,2025-04-11_07h57.11.692,posner_endo_new1,2024.2.4,60.01867781501624,2025-04-11 07h57.17.807812 +0100,
cube_r.png,0.1,0.31,valid,46,46,0,up,2.4166155999992043,None,space,0.6455967999936547,None,,,,,0,46,46,46,,,,,1233.4428125999984,,,,,,,,,,,,,1233.427402699992,1233.4428125999984,1233.4428125999984,1233.4428125999984,1235.8745712999953,,,,1235.8859265999927,1235.8962459999893,1235.8962459999893,1235.9403599999932,1235.9407157999958,1235.9569416000013,1235.9569416000013,1235.9569416000013,1236.0401459999994,1236.6073879999894,,,,up,2.4166155999992043,None,,,,,space,0.6455967999936547,None,,,,,,,,,,,,,,,P147,001,2025-04-11_07h57.11.692,posner_endo_new1,2024.2.4,60.01867781501624,2025-04-11 07h57.17.807812 +0100,
cube_l.png,0.1,-0.31,valid,47,47,0,up,2.421145100001013,None,space,0.3584369999880437,None,,,,,0,47,47,47,,,,,1236.6225559999875,,,,,,,,,,,,,1236.6076831999962,1236.6225559999875,1236.6225559999875,1236.6225559999875,1239.0548850999912,,,,1239.0661974999966,1239.0764667999902,1239.0764667999902,1239.12039679999,1239.1207626999967,1239.1369960999873,1239.1369960999873,1239.1369960999873,1239.2201892999874,1239.5046778999968,,,,up,2.421145100001013,None,,,,,space,0.3584369999880437,None,,,,,,,,,,,,,,,P147,001,2025-04-11_07h57.11.692,posner_endo_new1,2024.2.4,60.01867781501624,2025-04-11 07h57.17.807812 +0100,
cube_r.png,0.1,-0.31,invalid,48,48,0,up,2.2360971000016434,None,space,0.4446748999907868,None,,,,,0,48,48,48,,,,,1239.5195544999879,,,,,,,,,,,,,1239.5049677999923,1239.5195544999879,1239.5195544999879,1239.5195544999879,1241.7683143999893,,,,1241.781657799991,1241.7940833999892,1241.7940833999892,1241.8342240999918,1241.8346835999982,1241.85071649999,1241.85071649999,1241.85071649999,1241.9172723999945,1242.3014017999958,,,,up,2.2360971000016434,None,,,,,space,0.4446748999907868,None,,,,,,,,,,,,,,,P147,001,2025-04-11_07h57.11.692,posner_endo_new1,2024.2.4,60.01867781501624,2025-04-11 07h57.17.807812 +0100,
cube_r.png,0.1,10,catch,49,49,0,up,2.27900260000024,None,None,,,,,,,0,49,49,49,,,,,1242.3170915999945,,,,,,,,,,,,,1242.3016510999878,1242.3170915999945,1242.3170915999945,1242.3170915999945,1244.598968899998,,,,1244.6084580999886,1244.6187153999927,1244.6187153999927,1244.6647782999935,1244.6651004999876,1244.6810710999998,1244.6810710999998,1244.6810710999998,1244.7645532999886,1247.6789000999997,,,,up,2.27900260000024,None,1246.7787244999927,1247.694488699999,1247.694488699999,1247.694488699999,None,,,,,,,,,,,,,,,,,P147,001,2025-04-11_07h57.11.692,posner_endo_new1,2024.2.4,60.01867781501624,2025-04-11 07h57.17.807812 +0100,
cube_l.png,0.1,-0.31,valid,50,50,0,up,3.485379000005196,None,space,0.5410142999899108,None,,,,,0,50,50,50,,,,,1247.694488699999,,,,,,,,,,,,,1247.6790578999935,1247.694488699999,1247.694488699999,1247.694488699999,1251.1939870999922,,,,1251.2164735999977,1251.2288086999906,1251.2288086999906,1251.257712599996,1251.2580744000006,1251.274583499995,1251.274583499995,1251.274583499995,1251.3575596999872,1251.8251428999938,,,,up,3.485379000005196,None,,,,,space,0.5410142999899108,None,,,,,,,,,,,,,,,P147,001,2025-04-11_07h57.11.692,posner_endo_new1,2024.2.4,60.01867781501624,2025-04-11 07h57.17.807812 +0100,
cube_l.png,0.1,-0.31,valid,51,51,0,up,2.2671256000030553,None,space,0.4887167000124464,None,,,,,0,51,51,51,,,,,1251.8404136999889,,,,,,,,,,,,,1251.825431899997,1251.8404136999889,1251.8404136999889,1251.8404136999889,1254.122713299992,,,,1254.1339344000007,1254.1442187999928,1254.1442187999928,1254.1884472999955,1254.1888039999903,1254.204533199998,1254.204533199998,1254.204533199998,1254.2881797999871,1254.7056288999884,,,,up,2.2671256000030553,None,,,,,space,0.4887167000124464,None,,,,,,,,,,,,,,,P147,001,2025-04-11_07h57.11.692,posner_endo_new1,2024.2.4,60.01867781501624,2025-04-11 07h57.17.807812 +0100,
cube_r.png,0.1,-0.31,invalid,52,52,0,up,2.6822259000036865,None,space,0.47683080000570044,None,,,,,0,52,52,52,,,,,1254.7210955999908,,,,,,,,,,,,,1254.705916699997,1254.7210955999908,1254.7210955999908,1254.7210955999908,1257.4194723999972,,,,1257.4307291000005,1257.4406952999998,1257.4406952999998,1257.4851311999955,1257.4854970000015,1257.5014130999916,1257.5014130999916,1257.5014130999916,1257.5845353999903,1257.984421999994,,,,up,2.6822259000036865,None,,,,,space,0.47683080000570044,None,,,,,,,,,,,,,,,P147,001,2025-04-11_07h57.11.692,posner_endo_new1,2024.2.4,60.01867781501624,2025-04-11 07h57.17.807812 +0100,
cube_l.png,0.1,-0.31,valid,53,53,0,up,1.9492027000087546,None,space,0.4684971999959089,None,,,,,0,53,53,53,,,,,1258.0063539999974,,,,,,,,,,,,,1257.9847085999936,1258.0063539999974,1258.0063539999974,1258.0063539999974,1259.9664092999883,,,,1259.9723647999926,1259.9840513999952,1259.9840513999952,1260.03237239999,1260.0326169999898,1260.0489379999926,1260.0489379999926,1260.0489379999926,1260.131963599997,1260.5320968000015,,,,up,1.9492027000087546,None,,,,,space,0.4684971999959089,None,,,,,,,,,,,,,,,P147,001,2025-04-11_07h57.11.692,posner_endo_new1,2024.2.4,60.01867781501624,2025-04-11 07h57.17.807812 +0100,
cube_r.png,0.1,10,catch,54,54,0,up,2.51119460001064,None,None,,,,,,,0,54,54,54,,,,,1260.5485578999942,,,,,,,,,,,,,1260.5322725000005,1260.5485578999942,1260.5485578999942,1260.5485578999942,1263.0655296999903,,,,1263.087927399989,1263.1002511999977,1263.1002511999977,1263.1288552999904,1263.1292157999997,1263.1455871999933,1263.1455871999933,1263.1455871999933,1263.22868629999,1266.1433861999976,,,,up,2.51119460001064,None,1265.2434413999872,1266.1589800999936,1266.1589800999936,1266.1589800999936,None,,,,,,,,,,,,,,,,,P147,001,2025-04-11_07h57.11.692,posner_endo_new1,2024.2.4,60.01867781501624,2025-04-11 07h57.17.807812 +0100,
cube_l.png,0.1,0.31,invalid,55,55,0,up,2.8366403999971226,None,space,0.40543860000616405,None,,,,,0,55,55,55,,,,,1266.1589800999936,,,,,,,,,,,,,1266.1436532999942,1266.1589800999936,1266.1589800999936,1266.1589800999936,1269.0075288999942,,,,1269.0164040999953,1269.0263343999977,1269.0263343999977,1269.0730975999904,1269.0733476999885,1269.0898301999987,1269.0898301999987,1269.0898301999987,1269.1728938999877,1269.5068309999915,,,,up,2.8366403999971226,None,,,,,space,0.40543860000616405,None,,,,,,,,,,,,,,,P147,001,2025-04-11_07h57.11.692,posner_endo_new1,2024.2.4,60.01867781501624,2025-04-11 07h57.17.807812 +0100,
cube_l.png,0.1,-0.31,valid,56,56,0,up,2.2810309000051348,None,space,0.6087904000014532,None,,,,,0,56,56,56,,,,,1269.5224915,,,,,,,,,,,,,1269.5070192999992,1269.5224915,1269.5224915,1269.5224915,1271.8057649999973,,,,1271.8236169999873,1271.8349697999947,1271.8349697999947,1271.8704155000014,1271.8707018999994,1271.8868454999902,1271.8868454999902,1271.8868454999902,1271.9699601999891,1272.5048832999892,,,,up,2.2810309000051348,None,,,,,space,0.6087904000014532,None,,,,,,,,,,,,,,,P147,001,2025-04-11_07h57.11.692,posner_endo_new1,2024.2.4,60.01867781501624,2025-04-11 07h57.17.807812 +0100,
cube_r.png,0.1,0.31,valid,57,57,0,up,4.651733499995316,None,space,0.4313930999924196,None,,,,,0,57,57,57,,,,,1272.5195020999963,,,,,,,,,,,,,1272.5053412999987,1272.5195020999963,1272.5195020999963,1272.5195020999963,1277.1832921999885,,,,1277.2014771999966,1277.2124773999967,1277.2124773999967,1277.2482152000011,1277.2485732999921,1277.2646090999915,1277.2646090999915,1277.2646090999915,1277.3479077999946,1277.6986548999994,,,,up,4.651733499995316,None,,,,,space,0.4313930999924196,None,,,,,,,,,,,,,,,P147,001,2025-04-11_07h57.11.692,posner_endo_new1,2024.2.4,60.01867781501624,2025-04-11 07h57.17.807812 +0100,
cube_r.png,0.1,-0.31,invalid,58,58,0,up,3.449587100010831,None,space,0.36657529999502003,None,,,,,0,58,58,58,,,,,1277.7138866999885,,,,,,,,,,,,,1277.6989520999923,1277.7138866999885,1277.7138866999885,1277.7138866999885,1281.1785365999967,,,,1281.1898856999906,1281.2001499999897,1281.2001499999897,1281.2439375999966,1281.2442983999936,1281.260625099996,1281.260625099996,1281.260625099996,1281.3437646999955,1281.6284286999871,,,,up,3.449587100010831,None,,,,,space,0.36657529999502003,None,,,,,,,,,,,,,,,P147,001,2025-04-11_07h57.11.692,posner_endo_new1,2024.2.4,60.01867781501624,2025-04-11 07h57.17.807812 +0100,
cube_l.png,0.1,0.31,invalid,59,59,0,up,3.1437590999994427,None,space,0.6128322000004118,None,,,,,0,59,59,59,,,,,1281.6435649999912,,,,,,,,,,,,,1281.6287145999959,1281.6435649999912,1281.6435649999912,1281.6435649999912,1284.7912522999977,,,,1284.8025445999956,1284.8128362999996,1284.8128362999996,1284.8570332999952,1284.8574052999902,1284.8732425999915,1284.8732425999915,1284.8732425999915,1284.9566989999876,1285.4905381999997,,,,up,3.1437590999994427,None,,,,,space,0.6128322000004118,None,,,,,,,,,,,,,,,P147,001,2025-04-11_07h57.11.692,posner_endo_new1,2024.2.4,60.01867781501624,2025-04-11 07h57.17.807812 +0100,
,,,,,,,,,,,,,,,,,,,,,,,,,,,,,,,,,,,,,,,,,,,,,,,,,,,,,,,,,,,,,,,,,,,,,1285.4907284999936,1285.506315599996,1285.506315599996,1345.5111826999928,1347.1942531999957,space,61.68093030000455,None,,,,,,,P147,001,2025-04-11_07h57.11.692,posner_endo_new1,2024.2.4,60.01867781501624,2025-04-11 07h57.17.807812 +0100,
,,,,,,,,,,,,,,,,,,,,,,,,,,,,,,,,,,1347.1943439999886,1347.2097192999936,1350.2851192999951,1350.1907261000015,,,,,,,,,,,,,,,,,,,,,,,,,,,,,,,,,,,,,,,,,,,,,,P147,001,2025-04-11_07h57.11.692,posner_endo_new1,2024.2.4,60.01867781501624,2025-04-11 07h57.17.807812 +0100,
cube_l.png,0.1,10,catch,0,0,0,down,11.494401100004325,None,None,,,,,,,,,,,0,0,0,0,1350.2851192999951,,,,,,,,,,,,,1350.2768470999872,1350.2851192999951,1350.2851192999951,1350.2851192999951,1361.7971838999947,,,,1361.819696999999,1361.8313870999991,1361.8313870999991,1361.8611573999951,1361.861507499998,1361.8775688999885,1361.8775688999885,1361.8775688999885,1361.9612510000006,1364.8757653999928,,,,,,,1363.975607100001,1364.891738099992,1364.891738099992,1364.891738099992,,,,,,,,,,,,down,11.494401100004325,None,None,,,P147,001,2025-04-11_07h57.11.692,posner_endo_new1,2024.2.4,60.01867781501624,2025-04-11 07h57.17.807812 +0100,
cube_l.png,0.1,10,catch,1,1,0,down,4.46355910001148,None,None,,,,,,,,,,,0,1,1,1,1364.891738099992,,,,,,,,,,,,,1364.8760352999961,1364.891738099992,1364.891738099992,1364.891738099992,1369.3716483999888,,,,1369.3830193999893,1369.3933523999876,1369.3933523999876,1369.4369731999905,1369.4373380999896,1369.4532858999883,1369.4532858999883,1369.4532858999883,1369.5365976999892,1372.450961399998,,,,,,,1371.5512477999873,1372.4673077999905,1372.4673077999905,1372.4673077999905,,,,,,,,,,,,down,4.46355910001148,None,None,,,P147,001,2025-04-11_07h57.11.692,posner_endo_new1,2024.2.4,60.01867781501624,2025-04-11 07h57.17.807812 +0100,
cube_l.png,0.1,0.31,invalid,2,2,0,down,3.9277220999938436,None,space,0.4590080000052694,None,,,,,,,,,0,2,2,2,1372.4673077999905,,,,,,,,,,,,,1372.4512412999902,1372.4673077999905,1372.4673077999905,1372.4673077999905,1376.3977464999916,,,,1376.4090150999982,1376.4191541999899,1376.4191541999899,1376.4634106999874,1376.4637673999969,1376.4799969999876,1376.4799969999876,1376.4799969999876,1376.5628024999896,1376.9471067999984,,,,,,,,,,,,,,,,,,,,,,down,3.9277220999938436,None,space,0.4590080000052694,None,P147,001,2025-04-11_07h57.11.692,posner_endo_new1,2024.2.4,60.01867781501624,2025-04-11 07h57.17.807812 +0100,
cube_l.png,0.1,0.31,invalid,3,3,0,down,6.688601500005461,None,space,0.45535459999518935,None,,,,,,,,,0,3,3,3,1376.9625683999911,,,,,,,,,,,,,1376.9474076999904,1376.9625683999911,1376.9625683999911,1376.9625683999911,1383.656968299998,,,,1383.6682575000013,1383.678527799988,1383.678527799988,1383.722632799996,1383.7229883999971,1383.7388019999926,1383.7388019999926,1383.7388019999926,1383.8223205999966,1384.206517899991,,,,,,,,,,,,,,,,,,,,,,down,6.688601500005461,None,space,0.45535459999518935,None,P147,001,2025-04-11_07h57.11.692,posner_endo_new1,2024.2.4,60.01867781501624,2025-04-11 07h57.17.807812 +0100,
cube_l.png,0.1,-0.31,valid,4,4,0,down,5.645725100010168,None,space,0.7943497999949614,None,,,,,,,,,0,4,4,4,1384.2217487000016,,,,,,,,,,,,,1384.2068138999894,1384.2217487000016,1384.2217487000016,1384.2217487000016,1389.8840132999903,,,,1389.8954756999883,1389.9053405000013,1389.9053405000013,1389.949482600001,1389.9497495999967,1389.9660261999961,1389.9660261999961,1389.9660261999961,1390.049152599997,1390.7660329999926,,,,,,,,,,,,,,,,,,,,,,down,5.645725100010168,None,space,0.7943497999949614,None,P147,001,2025-04-11_07h57.11.692,posner_endo_new1,2024.2.4,60.01867781501624,2025-04-11 07h57.17.807812 +0100,
cube_r.png,0.1,-0.31,invalid,5,5,0,down,3.7493058999971254,None,space,0.4631358999904478,None,,,,,,,,,0,5,5,5,1390.7817382999929,,,,,,,,,,,,,1390.7662405999872,1390.7817382999929,1390.7817382999929,1390.7817382999929,1394.5474045999872,,,,1394.5668051999965,1394.576818799993,1394.576818799993,1394.6110977999924,1394.611497299993,1394.6275314999948,1394.6275314999948,1394.6275314999948,1394.7108832999947,1395.0953365999885,,,,,,,,,,,,,,,,,,,,,,down,3.7493058999971254,None,space,0.4631358999904478,None,P147,001,2025-04-11_07h57.11.692,posner_endo_new1,2024.2.4,60.01867781501624,2025-04-11 07h57.17.807812 +0100,
cube_r.png,0.1,0.31,valid,6,6,0,down,5.661224600000423,None,space,0.4171156000084011,None,,,,,,,,,0,6,6,6,1395.1104128000006,,,,,,,,,,,,,1395.0956781999994,1395.1104128000006,1395.1104128000006,1395.1104128000006,1400.7890523999959,,,,1400.7972969999973,1400.8074429999979,1400.8074429999979,1400.8551125999948,1400.8556998999993,1400.8715502999985,1400.8715502999985,1400.8715502999985,1400.9547486999945,1401.3061433999974,,,,,,,,,,,,,,,,,,,,,,down,5.661224600000423,None,space,0.4171156000084011,None,P147,001,2025-04-11_07h57.11.692,posner_endo_new1,2024.2.4,60.01867781501624,2025-04-11 07h57.17.807812 +0100,
cube_r.png,0.1,-0.31,invalid,7,7,0,down,5.002339200000279,None,space,0.5494617000076687,None,,,,,,,,,0,7,7,7,1401.3210529999924,,,,,,,,,,,,,1401.3066356999916,1401.3210529999924,1401.3210529999924,1401.3210529999924,1406.3345845000003,,,,1406.3527993999887,1406.3630761999957,1406.3630761999957,1406.3989842999872,1406.3993098999927,1406.4155067999964,1406.4155067999964,1406.4155067999964,1406.4990944999881,1406.9664362999902,,,,,,,,,,,,,,,,,,,,,,down,5.002339200000279,None,space,0.5494617000076687,None,P147,001,2025-04-11_07h57.11.692,posner_endo_new1,2024.2.4,60.01867781501624,2025-04-11 07h57.17.807812 +0100,
cube_l.png,0.1,-0.31,valid,8,8,0,down,5.894864599991706,None,space,0.3969474000041373,None,,,,,,,,,0,8,8,8,1406.9818498999957,,,,,,,,,,,,,1406.9666979999893,1406.9818498999957,1406.9818498999957,1406.9818498999957,1412.893538599994,,,,1412.903020400001,1412.9130564999941,1412.9130564999941,1412.9592790999886,1412.9595950999937,1412.9755200999934,1412.9755200999934,1412.9755200999934,1413.058696299995,1413.3762281999952,,,,,,,,,,,,,,,,,,,,,,down,5.894864599991706,None,space,0.3969474000041373,None,P147,001,2025-04-11_07h57.11.692,posner_endo_new1,2024.2.4,60.01867781501624,2025-04-11 07h57.17.807812 +0100,
cube_r.png,0.1,-0.31,invalid,9,9,0,down,5.972118699995917,None,space,0.3283526000013808,None,,,,,,,,,0,9,9,9,1413.391706999988,,,,,,,,,,,,,1413.376514299991,1413.391706999988,1413.391706999988,1413.391706999988,1419.3699724999897,,,,1419.379475099995,1419.3898033000005,1419.3898033000005,1419.4357821999874,1419.4361001999932,1419.4524707999954,1419.4524707999954,1419.4524707999954,1419.535486199995,1419.78675449999,,,,,,,,,,,,,,,,,,,,,,down,5.972118699995917,None,space,0.3283526000013808,None,P147,001,2025-04-11_07h57.11.692,posner_endo_new1,2024.2.4,60.01867781501624,2025-04-11 07h57.17.807812 +0100,
cube_l.png,0.1,0.31,invalid,10,10,0,down,5.64101419999497,None,space,0.2912877000053413,None,,,,,,,,,0,10,10,10,1419.8019743999903,,,,,,,,,,,,,1419.787014299989,1419.8019743999903,1419.8019743999903,1419.8019743999903,1425.4472127999907,,,,1425.4566777,1425.4669288000005,1425.4669288000005,1425.5127576999948,1425.5130787999951,1425.5295840999897,1425.5295840999897,1425.5295840999897,1425.6128918999893,1425.8300410999946,,,,,,,,,,,,,,,,,,,,,,down,5.64101419999497,None,space,0.2912877000053413,None,P147,001,2025-04-11_07h57.11.692,posner_endo_new1,2024.2.4,60.01867781501624,2025-04-11 07h57.17.807812 +0100,
cube_r.png,0.1,-0.31,invalid,11,11,0,down,6.0616910999960965,None,space,0.438249500002712,None,,,,,,,,,0,11,11,11,1425.8456556999881,,,,,,,,,,,,,1425.8303033999982,1425.8456556999881,1425.8456556999881,1425.8456556999881,1431.9241564999975,,,,1431.93364019999,1431.943750499995,1431.943750499995,1431.9895638999878,1431.9898811999883,1432.0061018999986,1432.0061018999986,1432.0061018999986,1432.0895801000006,1432.4566519999935,,,,,,,,,,,,,,,,,,,,,,down,6.0616910999960965,None,space,0.438249500002712,None,P147,001,2025-04-11_07h57.11.692,posner_endo_new1,2024.2.4,60.01867781501624,2025-04-11 07h57.17.807812 +0100,
cube_r.png,0.1,0.31,valid,12,12,0,down,4.939619600001606,None,space,0.42427560000214726,None,,,,,,,,,0,12,12,12,1432.4721941999887,,,,,,,,,,,,,1432.4569110999873,1432.4721941999887,1432.4721941999887,1432.4721941999887,1437.4191394999943,,,,1437.428898099999,1437.439104899997,1437.439104899997,1437.4842427999974,1437.4845592999918,1437.5004088999995,1437.5004088999995,1437.5004088999995,1437.5835936999938,1437.9347085999907,,,,,,,,,,,,,,,,,,,,,,down,4.939619600001606,None,space,0.42427560000214726,None,P147,001,2025-04-11_07h57.11.692,posner_endo_new1,2024.2.4,60.01867781501624,2025-04-11 07h57.17.807812 +0100,
cube_l.png,0.1,10,catch,13,13,0,down,2.429876599999261,None,None,,,,,,,,,,,0,13,13,13,1437.9498682999983,,,,,,,,,,,,,1437.9349762999918,1437.9498682999983,1437.9498682999983,1437.9498682999983,1440.3821690999903,,,,1440.391803999999,1440.4023186999984,1440.4023186999984,1440.4475582999876,1440.447879299987,1440.4643507,1440.4643507,1440.4643507,1440.5473507999995,1443.461965800001,,,,,,,1442.5621500999987,1443.4779112999968,1443.4779112999968,1443.4779112999968,,,,,,,,,,,,down,2.429876599999261,None,None,,,P147,001,2025-04-11_07h57.11.692,posner_endo_new1,2024.2.4,60.01867781501624,2025-04-11 07h57.17.807812 +0100,
cube_r.png,0.1,-0.31,invalid,14,14,0,down,2.7494214000034845,None,space,0.37054380000336096,None,,,,,,,,,0,14,14,14,1443.4779112999968,,,,,,,,,,,,,1443.462210400001,1443.4779112999968,1443.4779112999968,1443.4779112999968,1446.242525099995,,,,1446.2520299999887,1446.2625139999873,1446.2625139999873,1446.3081844999979,1446.3085157999885,1446.3246782999922,1446.3246782999922,1446.3246782999922,1446.3916523999942,1446.7088574999943,,,,,,,,,,,,,,,,,,,,,,down,2.7494214000034845,None,space,0.37054380000336096,None,P147,001,2025-04-11_07h57.11.692,posner_endo_new1,2024.2.4,60.01867781501624,2025-04-11 07h57.17.807812 +0100,
cube_l.png,0.1,-0.31,valid,15,15,0,down,4.343320599989966,None,space,0.35033269999257755,None,,,,,,,,,0,15,15,15,1446.7242539,,,,,,,,,,,,,1446.709122699991,1446.7242539,1446.7242539,1446.7242539,1451.0710830999888,,,,1451.082342900001,1451.0925323999982,1451.0925323999982,1451.1370315999957,1451.1373774999956,1451.1533494999894,1451.1533494999894,1451.1533494999894,1451.2366435000004,1451.5207516999944,,,,,,,,,,,,,,,,,,,,,,down,4.343320599989966,None,space,0.35033269999257755,None,P147,001,2025-04-11_07h57.11.692,posner_endo_new1,2024.2.4,60.01867781501624,2025-04-11 07h57.17.807812 +0100,
cube_r.png,0.1,10,catch,16,16,0,down,3.0352377999952296,None,None,,,,,,,,,,,0,16,16,16,1451.5363283999905,,,,,,,,,,,,,1451.52103969999,1451.5363283999905,1451.5363283999905,1451.5363283999905,1454.5843014999991,,,,1454.5946632999985,1454.6042706000007,1454.6042706000007,1454.650121899991,1454.6503578999982,1454.6665572999918,1454.6665572999918,1454.6665572999918,1454.7498661999998,1457.6637349999946,,,,,,,1456.7644673999894,1457.6798416999954,1457.6798416999954,1457.6798416999954,,,,,,,,,,,,down,3.0352377999952296,None,None,,,P147,001,2025-04-11_07h57.11.692,posner_endo_new1,2024.2.4,60.01867781501624,2025-04-11 07h57.17.807812 +0100,
cube_r.png,0.1,10,catch,17,17,0,down,5.971491200005403,None,None,,,,,,,,,,,0,17,17,17,1457.6798416999954,,,,,,,,,,,,,1457.6638887000008,1457.6798416999954,1457.6798416999954,1457.6798416999954,1463.6584521999903,,,,1463.6696442999964,1463.6798672000004,1463.6798672000004,1463.7240552000003,1463.7244065999985,1463.7402913999977,1463.7402913999977,1463.7402913999977,1463.8235550999962,1466.7381729999906,,,,,,,1465.8381688999943,1466.753810299997,1466.753810299997,1466.753810299997,,,,,,,,,,,,down,5.971491200005403,None,None,,,P147,001,2025-04-11_07h57.11.692,posner_endo_new1,2024.2.4,60.01867781501624,2025-04-11 07h57.17.807812 +0100,
cube_l.png,0.1,0.31,invalid,18,18,0,down,4.449837300009676,None,space,0.46232760000566486,None,,,,,,,,,0,18,18,18,1466.753810299997,,,,,,,,,,,,,1466.738441900001,1466.753810299997,1466.753810299997,1466.753810299997,1471.2186814999877,,,,1471.2407708999963,1471.251681099995,1471.251681099995,1471.2827175999992,1471.2831092999986,1471.2991612999904,1471.2991612999904,1471.2991612999904,1471.382315099996,1471.7667117999954,,,,,,,,,,,,,,,,,,,,,,down,4.449837300009676,None,space,0.46232760000566486,None,P147,001,2025-04-11_07h57.11.692,posner_endo_new1,2024.2.4,60.01867781501624,2025-04-11 07h57.17.807812 +0100,
cube_l.png,0.1,10,catch,19,19,0,down,6.629641899999115,None,None,,,,,,,,,,,0,19,19,19,1471.7820065999986,,,,,,,,,,,,,1471.7670411,1471.7820065999986,1471.7820065999986,1471.7820065999986,1478.4265681999968,,,,1478.4390665999963,1478.449563599992,1478.449563599992,1478.4918632999907,1478.4921533999877,1478.508484399994,1478.508484399994,1478.508484399994,1478.5921298999892,1481.50595169999,,,,,,,1480.6065751999995,1481.5223341999954,1481.5223341999954,1481.5223341999954,,,,,,,,,,,,down,6.629641899999115,None,None,,,P147,001,2025-04-11_07h57.11.692,posner_endo_new1,2024.2.4,60.01867781501624,2025-04-11 07h57.17.807812 +0100,
cube_l.png,0.1,0.31,invalid,20,20,0,down,2.2330161000136286,None,space,0.4588720000028843,None,,,,,,,,,0,20,20,20,1481.5223341999954,,,,,,,,,,,,,1481.5061968999944,1481.5223341999954,1481.5223341999954,1481.5223341999954,1483.7725082999968,,,,1483.7906183999876,1483.8006897999876,1483.8006897999876,1483.8364363,1483.8368716999976,1483.8529697999911,1483.8529697999911,1483.8529697999911,1483.9364907999989,1484.320055499993,,,,,,,,,,,,,,,,,,,,,,down,2.2330161000136286,None,space,0.4588720000028843,None,P147,001,2025-04-11_07h57.11.692,posner_endo_new1,2024.2.4,60.01867781501624,2025-04-11 07h57.17.807812 +0100,
cube_l.png,0.1,-0.31,valid,21,21,0,down,10.658823600009782,None,space,0.4105909000063548,None,,,,,,,,,0,21,21,21,1484.3361968999961,,,,,,,,,,,,,1484.320306900001,1484.3361968999961,1484.3361968999961,1484.3361968999961,1495.0094641999895,,,,1495.0192707999959,1495.0295245000016,1495.0295245000016,1495.074972699993,1495.0752902999957,1495.0914779000013,1495.0914779000013,1495.0914779000013,1495.1746940999874,1495.5091673999996,,,,,,,,,,,,,,,,,,,,,,down,10.658823600009782,None,space,0.4105909000063548,None,P147,001,2025-04-11_07h57.11.692,posner_endo_new1,2024.2.4,60.01867781501624,2025-04-11 07h57.17.807812 +0100,
cube_r.png,0.1,0.31,valid,22,22,0,down,16.015229600001476,None,space,0.5068319999991218,None,,,,,,,,,0,22,22,22,1495.524581699996,,,,,,,,,,,,,1495.5094304999948,1495.524581699996,1495.524581699996,1495.524581699996,1511.5445927999972,,,,1511.565237399991,1511.5755689999933,1511.5755689999933,1511.608013399993,1511.608410899993,1511.6246096999967,1511.6246096999967,1511.6246096999967,1511.7077998999885,1512.1419702999992,,,,,,,,,,,,,,,,,,,,,,down,16.015229600001476,None,space,0.5068319999991218,None,P147,001,2025-04-11_07h57.11.692,posner_endo_new1,2024.2.4,60.01867781501624,2025-04-11 07h57.17.807812 +0100,
cube_r.png,0.1,-0.31,invalid,23,23,0,down,4.670372500011581,None,space,0.5029687000060221,None,,,,,,,,,0,23,23,23,1512.1572816999978,,,,,,,,,,,,,1512.1423022999952,1512.1572816999978,1512.1572816999978,1512.1572816999978,1516.838706800001,,,,1516.8608921999985,1516.8734183999914,1516.8734183999914,1516.9027972999902,1516.903141799994,1516.9194262999954,1516.9194262999954,1516.9194262999954,1517.0026284999913,1517.4364537999936,,,,,,,,,,,,,,,,,,,,,,down,4.670372500011581,None,space,0.5029687000060221,None,P147,001,2025-04-11_07h57.11.692,posner_endo_new1,2024.2.4,60.01867781501624,2025-04-11 07h57.17.807812 +0100,
cube_r.png,0.1,0.31,valid,24,24,0,down,8.079623300000094,None,space,0.3311096999968868,None,,,,,,,,,0,24,24,24,1517.4521823999967,,,,,,,,,,,,,1517.4367436999892,1517.4521823999967,1517.4521823999967,1517.4521823999967,1525.544926699993,,,,1525.5562952999899,1525.5665405999898,1525.5665405999898,1525.6102790000004,1525.6105394999904,1525.6272769999923,1525.6272769999923,1525.6272769999923,1525.7103854000015,1525.9611081999901,,,,,,,,,,,,,,,,,,,,,,down,8.079623300000094,None,space,0.3311096999968868,None,P147,001,2025-04-11_07h57.11.692,posner_endo_new1,2024.2.4,60.01867781501624,2025-04-11 07h57.17.807812 +0100,
cube_r.png,0.1,-0.31,invalid,25,25,0,down,6.3070961000048555,None,space,0.7807419000018854,None,,,,,,,,,0,25,25,25,1525.976854499997,,,,,,,,,,,,,1525.9613084000011,1525.976854499997,1525.976854499997,1525.976854499997,1532.2900166999898,,,,1532.312420599992,1532.324860599998,1532.324860599998,1532.3533571000007,1532.3537037999922,1532.3698800999991,1532.3698800999991,1532.3698800999991,1532.453378899998,1533.1540056999947,,,,,,,,,,,,,,,,,,,,,,down,6.3070961000048555,None,space,0.7807419000018854,None,P147,001,2025-04-11_07h57.11.692,posner_endo_new1,2024.2.4,60.01867781501624,2025-04-11 07h57.17.807812 +0100,
cube_l.png,0.1,-0.31,valid,26,26,0,down,5.714404800004559,None,space,0.5585947999934433,None,,,,,,,,,0,26,26,26,1533.1695397000003,,,,,,,,,,,,,1533.1542981999955,1533.1695397000003,1533.1695397000003,1533.1695397000003,1538.8978687999916,,,,1538.909232399994,1538.9194142999913,1538.9194142999913,1538.9633332999947,1538.9636783999886,1538.9801555000013,1538.9801555000013,1538.9801555000013,1539.0634262999956,1539.5472898000007,,,,,,,,,,,,,,,,,,,,,,down,5.714404800004559,None,space,0.5585947999934433,None,P147,001,2025-04-11_07h57.11.692,posner_endo_new1,2024.2.4,60.01867781501624,2025-04-11 07h57.17.807812 +0100,
cube_r.png,0.1,0.31,valid,27,27,0,down,5.600371099993936,None,space,0.46436919999541715,None,,,,,,,,,0,27,27,27,1539.5626053000015,,,,,,,,,,,,,1539.547581299994,1539.5626053000015,1539.5626053000015,1539.5626053000015,1545.1750355999975,,,,1545.1863998999906,1545.196618099988,1545.196618099988,1545.2403016999888,1545.2406563999975,1545.2567928999924,1545.2567928999924,1545.2567928999924,1545.3403714000015,1545.7248022999993,,,,,,,,,,,,,,,,,,,,,,down,5.600371099993936,None,space,0.46436919999541715,None,P147,001,2025-04-11_07h57.11.692,posner_endo_new1,2024.2.4,60.01867781501624,2025-04-11 07h57.17.807812 +0100,
cube_r.png,0.1,10,catch,28,28,0,down,6.183901700002025,None,space,0.35032449998834636,None,,,,,,,,,0,28,28,28,1545.739821199997,,,,,,,,,,,,,1545.7251053999935,1545.739821199997,1545.739821199997,1545.739821199997,1551.9347815999936,,,,1551.9453948999871,1551.9549852999917,1551.9549852999917,1552.000581299988,1552.000834999999,1552.0163853999984,1552.0163853999984,1552.0163853999984,1552.100089799991,1552.3686719999969,,,,,,,,,,,,,,,,,,,,,,down,6.183901700002025,None,space,0.35032449998834636,None,P147,001,2025-04-11_07h57.11.692,posner_endo_new1,2024.2.4,60.01867781501624,2025-04-11 07h57.17.807812 +0100,
cube_r.png,0.1,0.31,valid,29,29,0,down,7.96446570000262,None,space,0.5580840000038734,None,,,,,,,,,0,29,29,29,1552.383109699993,,,,,,,,,,,,,1552.3691737999907,1552.383109699993,1552.383109699993,1552.383109699993,1560.36028909999,,,,1560.3784099999903,1560.3898604999995,1560.3898604999995,1560.4251545000006,1560.4257254999975,1560.4415498999879,1560.4415498999879,1560.4415498999879,1560.5248129999964,1561.0096977999929,,,,,,,,,,,,,,,,,,,,,,down,7.96446570000262,None,space,0.5580840000038734,None,P147,001,2025-04-11_07h57.11.692,posner_endo_new1,2024.2.4,60.01867781501624,2025-04-11 07h57.17.807812 +0100,
cube_r.png,0.1,0.31,valid,30,30,0,down,6.131125799991423,None,space,0.3844734000012977,None,,,,,,,,,0,30,30,30,1561.0243218999967,,,,,,,,,,,,,1561.0101808999898,1561.0243218999967,1561.0243218999967,1561.0243218999967,1567.170189299999,,,,1567.1883257000009,1567.1997390999895,1567.1997390999895,1567.2348043999955,1567.235372799987,1567.2512094999984,1567.2512094999984,1567.2512094999984,1567.3344881999947,1567.6528398999944,,,,,,,,,,,,,,,,,,,,,,down,6.131125799991423,None,space,0.3844734000012977,None,P147,001,2025-04-11_07h57.11.692,posner_endo_new1,2024.2.4,60.01867781501624,2025-04-11 07h57.17.807812 +0100,
cube_l.png,0.1,-0.31,valid,31,31,0,down,19.048165600004722,None,space,0.5030372999899555,None,,,,,,,,,0,31,31,31,1567.6674994999921,,,,,,,,,,,,,1567.6533434000012,1567.6674994999921,1567.6674994999921,1567.6674994999921,1586.7329017999873,,,,1586.7511792000005,1586.76205759999,1586.76205759999,1586.7981398999982,1586.7987065999914,1586.8145612999942,1586.8145612999942,1586.8145612999942,1586.8977841999877,1587.332579599999,,,,,,,,,,,,,,,,,,,,,,down,19.048165600004722,None,space,0.5030372999899555,None,P147,001,2025-04-11_07h57.11.692,posner_endo_new1,2024.2.4,60.01867781501624,2025-04-11 07h57.17.807812 +0100,
cube_r.png,0.1,0.31,valid,32,32,0,down,9.648148100008257,None,space,0.6673427000059746,None,,,,,,,,,0,32,32,32,1587.3473531999916,,,,,,,,,,,,,1587.3330553999986,1587.3473531999916,1587.3473531999916,1587.3473531999916,1597.0061123999913,,,,1597.0245736999932,1597.0362566999975,1597.0362566999975,1597.070604499997,1597.070910999988,1597.0870643999951,1597.0870643999951,1597.0870643999951,1597.1706554999982,1597.77178309999,,,,,,,,,,,,,,,,,,,,,,down,9.648148100008257,None,space,0.6673427000059746,None,P147,001,2025-04-11_07h57.11.692,posner_endo_new1,2024.2.4,60.01867781501624,2025-04-11 07h57.17.807812 +0100,
cube_r.png,0.1,-0.31,invalid,33,33,0,down,14.592516700009583,None,space,0.44937290000962093,None,,,,,,,,,0,33,33,33,1597.7866779999895,,,,,,,,,,,,,1597.772260999991,1597.7866779999895,1597.7866779999895,1597.7866779999895,1612.3904553999892,,,,1612.4090007999912,1612.4204718999972,1612.4204718999972,1612.454755999992,1612.4550829999935,1612.4716585999995,1612.4716585999995,1612.4716585999995,1612.5547881999955,1612.9223840999912,,,,,,,,,,,,,,,,,,,,,,down,14.592516700009583,None,space,0.44937290000962093,None,P147,001,2025-04-11_07h57.11.692,posner_endo_new1,2024.2.4,60.01867781501624,2025-04-11 07h57.17.807812 +0100,
cube_r.png,0.1,10,catch,34,34,0,down,7.47409059999336,None,None,,,,,,,,,,,0,34,34,34,1612.9377935999946,,,,,,,,,,,,,1612.9226424999943,1612.9377935999946,1612.9377935999946,1612.9377935999946,1620.4146705999883,,,,1620.424372999987,1620.4346889000008,1620.4346889000008,1620.4799923999963,1620.4803130999935,1620.4966529999947,1620.4966529999947,1620.4966529999947,1620.5801006999973,1623.4940458999918,,,,,,,1622.594303699996,1623.510371299999,1623.510371299999,1623.510371299999,,,,,,,,,,,,down,7.47409059999336,None,None,,,P147,001,2025-04-11_07h57.11.692,posner_endo_new1,2024.2.4,60.01867781501624,2025-04-11 07h57.17.807812 +0100,
cube_r.png,0.1,0.31,valid,35,35,0,down,4.149013500005822,None,space,0.5532614000112517,None,,,,,,,,,0,35,35,35,1623.510371299999,,,,,,,,,,,,,1623.494288099988,1623.510371299999,1623.510371299999,1623.510371299999,1627.673447699999,,,,1627.6830489999993,1627.6933898999996,1627.6933898999996,1627.7394171999913,1627.7397349999956,1627.7559708999906,1627.7559708999906,1627.7559708999906,1627.8224084999965,1628.3228253999987,,,,,,,,,,,,,,,,,,,,,,down,4.149013500005822,None,space,0.5532614000112517,None,P147,001,2025-04-11_07h57.11.692,posner_endo_new1,2024.2.4,60.01867781501624,2025-04-11 07h57.17.807812 +0100,
cube_r.png,0.1,-0.31,invalid,36,36,0,down,8.209715399993001,None,space,0.878450399992289,None,,,,,,,,,0,36,36,36,1628.3387953999918,,,,,,,,,,,,,1628.3230975999904,1628.3387953999918,1628.3387953999918,1628.3387953999918,1636.5644361999875,,,,1636.5734553999937,1636.5833023000014,1636.5833023000014,1636.6301867000002,1636.6304191999952,1636.6465208000009,1636.6465208000009,1636.6465208000009,1636.7134519999963,1637.5297189999983,,,,,,,,,,,,,,,,,,,,,,down,8.209715399993001,None,space,0.878450399992289,None,P147,001,2025-04-11_07h57.11.692,posner_endo_new1,2024.2.4,60.01867781501624,2025-04-11 07h57.17.807812 +0100,
cube_l.png,0.1,0.31,invalid,37,37,0,down,7.177257199989981,None,space,0.4231971999979578,None,,,,,,,,,0,37,37,37,1637.5460124999954,,,,,,,,,,,,,1637.5299086000014,1637.5460124999954,1637.5460124999954,1637.5460124999954,1644.7395421999972,,,,1644.7510838999879,1644.7610500999872,1644.7610500999872,1644.805413199996,1644.805769499988,1644.8219687999954,1644.8219687999954,1644.8219687999954,1644.9048015000008,1645.2559592999896,,,,,,,,,,,,,,,,,,,,,,down,7.177257199989981,None,space,0.4231971999979578,None,P147,001,2025-04-11_07h57.11.692,posner_endo_new1,2024.2.4,60.01867781501624,2025-04-11 07h57.17.807812 +0100,
cube_l.png,0.1,0.31,invalid,38,38,0,down,5.860583400004543,None,space,0.47731149999890476,None,,,,,,,,,0,38,38,38,1645.2712905999942,,,,,,,,,,,,,1645.2562666999875,1645.2712905999942,1645.2712905999942,1645.2712905999942,1651.1333920999896,,,,1651.144774299988,1651.1550907999917,1651.1550907999917,1651.198663099989,1651.199025599999,1651.215364699994,1651.215364699994,1651.215364699994,1651.2984133999998,1651.6993136999954,,,,,,,,,,,,,,,,,,,,,,down,5.860583400004543,None,space,0.47731149999890476,None,P147,001,2025-04-11_07h57.11.692,posner_endo_new1,2024.2.4,60.01867781501624,2025-04-11 07h57.17.807812 +0100,
cube_r.png,0.1,0.31,valid,39,39,0,down,9.112646200010204,None,space,0.978704099994502,None,,,,,,,,,0,39,39,39,1651.714810999998,,,,,,,,,,,,,1651.699616599988,1651.714810999998,1651.714810999998,1651.714810999998,1660.8396833000006,,,,1660.8512197999953,1660.861538799989,1660.861538799989,1660.9054431999975,1660.9058038999938,1660.9220483999961,1660.9220483999961,1660.9220483999961,1661.0054115999956,1661.9057171999884,,,,,,,,,,,,,,,,,,,,,,down,9.112646200010204,None,space,0.978704099994502,None,P147,001,2025-04-11_07h57.11.692,posner_endo_new1,2024.2.4,60.01867781501624,2025-04-11 07h57.17.807812 +0100,
cube_l.png,0.1,0.31,invalid,40,40,0,down,5.146086999986437,None,space,0.45809400000143796,None,,,,,,,,,0,40,40,40,1661.9211072999897,,,,,,,,,,,,,1661.9060284000007,1661.9211072999897,1661.9211072999897,1661.9211072999897,1667.0850213999947,,,,1667.1077686999924,1667.119477100001,1667.119477100001,1667.1487825999939,1667.1491500999982,1667.1656702999899,1667.1656702999899,1667.1656702999899,1667.2489575999934,1667.6331710999948,,,,,,,,,,,,,,,,,,,,,,down,5.146086999986437,None,space,0.45809400000143796,None,P147,001,2025-04-11_07h57.11.692,posner_endo_new1,2024.2.4,60.01867781501624,2025-04-11 07h57.17.807812 +0100,
cube_l.png,0.1,10,catch,41,41,0,down,9.155173199993442,None,None,,,,,,,,,,,0,41,41,41,1667.6483676999924,,,,,,,,,,,,,1667.6334709999937,1667.6483676999924,1667.6483676999924,1667.6483676999924,1676.8069161999883,,,,1676.8183025999897,1676.8285992999881,1676.8285992999881,1676.8726252999913,1676.8729827999923,1676.8891035999986,1676.8891035999986,1676.8891035999986,1676.9719858999888,1679.8865950999898,,,,,,,1678.9866973999888,1679.9027379999898,1679.9027379999898,1679.9027379999898,,,,,,,,,,,,down,9.155173199993442,None,None,,,P147,001,2025-04-11_07h57.11.692,posner_endo_new1,2024.2.4,60.01867781501624,2025-04-11 07h57.17.807812 +0100,
cube_l.png,0.1,-0.31,valid,42,42,0,down,4.932565399998566,None,space,0.6043227999907685,None,,,,,,,,,0,42,42,42,1679.9027379999898,,,,,,,,,,,,,1679.8868795999879,1679.9027379999898,1679.9027379999898,1679.9027379999898,1684.8485443999962,,,,1684.8599680999905,1684.8702183999994,1684.8702183999994,1684.9142696999916,1684.9146266999887,1684.9306913999899,1684.9306913999899,1684.9306913999899,1685.0140422999975,1685.5477591999952,,,,,,,,,,,,,,,,,,,,,,down,4.932565399998566,None,space,0.6043227999907685,None,P147,001,2025-04-11_07h57.11.692,posner_endo_new1,2024.2.4,60.01867781501624,2025-04-11 07h57.17.807812 +0100,
cube_l.png,0.1,10,catch,43,43,0,down,13.456494199999725,None,None,,,,,,,,,,,0,43,43,43,1685.5633124999877,,,,,,,,,,,,,1685.5480626999924,1685.5633124999877,1685.5633124999877,1685.5633124999877,1699.0339890999894,,,,1699.0454573999887,1699.0557752999885,1699.0557752999885,1699.0998115999973,1699.10007819999,1699.1159952000016,1699.1159952000016,1699.1159952000016,1699.199545399999,1702.1149875999981,,,,,,,1701.214359199992,1702.1301950999914,1702.1301950999914,1702.1301950999914,,,,,,,,,,,,down,13.456494199999725,None,None,,,P147,001,2025-04-11_07h57.11.692,posner_endo_new1,2024.2.4,60.01867781501624,2025-04-11 07h57.17.807812 +0100,
cube_l.png,0.1,0.31,invalid,44,44,0,down,32.78519169999345,None,space,0.42269999999552965,None,,,,,,,,,0,44,44,44,1702.1301950999914,,,,,,,,,,,,,1702.1155494999985,1702.1301950999914,1702.1301950999914,1702.1301950999914,1734.9326280999958,,,,1734.9508900999936,1734.9611399999994,1734.9611399999994,1734.9962965000013,1734.996747799989,1735.0126387999917,1735.0126387999917,1735.0126387999917,1735.0959938000015,1735.4464119999902,,,,,,,,,,,,,,,,,,,,,,down,32.78519169999345,None,space,0.42269999999552965,None,P147,001,2025-04-11_07h57.11.692,posner_endo_new1,2024.2.4,60.01867781501624,2025-04-11 07h57.17.807812 +0100,
cube_l.png,0.1,0.31,invalid,45,45,0,down,11.117384100012714,None,space,0.4483934999880148,None,,,,,,,,,0,45,45,45,1735.462172200001,,,,,,,,,,,,,1735.446663499999,1735.462172200001,1735.462172200001,1735.462172200001,1746.5850561999978,,,,1746.5937152999977,1746.6038370999886,1746.6038370999886,1746.6507967999933,1746.6510942999885,1746.6673655999912,1746.6673655999912,1746.6673655999912,1746.7505762999936,1747.1179368000012,,,,,,,,,,,,,,,,,,,,,,down,11.117384100012714,None,space,0.4483934999880148,None,P147,001,2025-04-11_07h57.11.692,posner_endo_new1,2024.2.4,60.01867781501624,2025-04-11 07h57.17.807812 +0100,
cube_r.png,0.1,0.31,valid,46,46,0,down,7.550181799990241,None,space,0.4538650000031339,None,,,,,,,,,0,46,46,46,1747.1335273000004,,,,,,,,,,,,,1747.1181776999874,1747.1335273000004,1747.1335273000004,1747.1335273000004,1754.6955005999916,,,,1754.7157721999974,1754.726085599992,1754.726085599992,1754.7592577999894,1754.7596675999957,1754.7756579999987,1754.7756579999987,1754.7756579999987,1754.8589122999983,1755.2431811999995,,,,,,,,,,,,,,,,,,,,,,down,7.550181799990241,None,space,0.4538650000031339,None,P147,001,2025-04-11_07h57.11.692,posner_endo_new1,2024.2.4,60.01867781501624,2025-04-11 07h57.17.807812 +0100,
cube_l.png,0.1,-0.31,valid,47,47,0,down,9.553226900010486,None,space,0.387182100006612,None,,,,,,,,,0,47,47,47,1755.2585719999915,,,,,,,,,,,,,1755.2435355999914,1755.2585719999915,1755.2585719999915,1755.2585719999915,1764.816815099999,,,,1764.8293344999984,1764.8395468999952,1764.8395468999952,1764.8821427999937,1764.8825421999936,1764.898646799993,1764.898646799993,1764.898646799993,1764.9818643999897,1765.2996893999953,,,,,,,,,,,,,,,,,,,,,,down,9.553226900010486,None,space,0.387182100006612,None,P147,001,2025-04-11_07h57.11.692,posner_endo_new1,2024.2.4,60.01867781501624,2025-04-11 07h57.17.807812 +0100,
cube_r.png,0.1,-0.31,invalid,48,48,0,down,3.7682471000007354,None,space,0.4955863000068348,None,,,,,,,,,0,48,48,48,1765.3149048999912,,,,,,,,,,,,,1765.3000428999949,1765.3149048999912,1765.3149048999912,1765.3149048999912,1769.0958041999984,,,,1769.1083523999987,1769.1187857999903,1769.1187857999903,1769.161186799989,1769.1614772999892,1769.177735499994,1769.177735499994,1769.177735499994,1769.2611076999892,1769.6788350999996,,,,,,,,,,,,,,,,,,,,,,down,3.7682471000007354,None,space,0.4955863000068348,None,P147,001,2025-04-11_07h57.11.692,posner_endo_new1,2024.2.4,60.01867781501624,2025-04-11 07h57.17.807812 +0100,
cube_r.png,0.1,10,catch,49,49,0,down,6.238556000011158,None,None,,,,,,,,,,,0,49,49,49,1769.6938370999997,,,,,,,,,,,,,1769.6792219999916,1769.6938370999997,1769.6938370999997,1769.6938370999997,1775.9384674999892,,,,1775.9479756999935,1775.9583493999962,1775.9583493999962,1776.0040960999904,1776.0044179999968,1776.0209309999918,1776.0209309999918,1776.0209309999918,1776.1038445999875,1779.0182217999973,,,,,,,1778.1185101999872,1779.0341827999946,1779.0341827999946,1779.0341827999946,,,,,,,,,,,,down,6.238556000011158,None,None,,,P147,001,2025-04-11_07h57.11.692,posner_endo_new1,2024.2.4,60.01867781501624,2025-04-11 07h57.17.807812 +0100,
cube_l.png,0.1,-0.31,valid,50,50,0,down,6.7213576000067405,None,space,0.5949034000077518,None,,,,,,,,,0,50,50,50,1779.0341827999946,,,,,,,,,,,,,1779.0184675999917,1779.0341827999946,1779.0341827999946,1779.0341827999946,1785.7616667999973,,,,1785.7712524999952,1785.781528899999,1785.781528899999,1785.8274952999927,1785.8278136000008,1785.8443621999904,1785.8443621999904,1785.8443621999904,1785.910865999991,1786.444408299998,,,,,,,,,,,,,,,,,,,,,,down,6.7213576000067405,None,space,0.5949034000077518,None,P147,001,2025-04-11_07h57.11.692,posner_endo_new1,2024.2.4,60.01867781501624,2025-04-11 07h57.17.807812 +0100,
cube_l.png,0.1,-0.31,valid,51,51,0,down,15.503456100006588,None,space,0.48467649999656714,None,,,,,,,,,0,51,51,51,1786.4602554999874,,,,,,,,,,,,,1786.4446801000013,1786.4602554999874,1786.4602554999874,1786.4602554999874,1801.9785259999917,,,,1801.9880636999878,1801.9983842999936,1801.9983842999936,1802.0441430999927,1802.0444610999984,1802.0609784999979,1802.0609784999979,1802.0609784999979,1802.1274431999918,1802.5613263999985,,,,,,,,,,,,,,,,,,,,,,down,15.503456100006588,None,space,0.48467649999656714,None,P147,001,2025-04-11_07h57.11.692,posner_endo_new1,2024.2.4,60.01867781501624,2025-04-11 07h57.17.807812 +0100,
cube_r.png,0.1,-0.31,invalid,52,52,0,down,9.746960100004799,None,space,0.6196601999981795,None,,,,,,,,,0,52,52,52,1802.5767957999924,,,,,,,,,,,,,1802.5615888999891,1802.5767957999924,1802.5767957999924,1802.5767957999924,1812.3347906999988,,,,1812.344040099997,1812.3537012000015,1812.3537012000015,1812.4004220999923,1812.4006624999893,1812.4172074999951,1812.4172074999951,1812.4172074999951,1812.5002750999993,1813.0527011999948,,,,,,,,,,,,,,,,,,,,,,down,9.746960100004799,None,space,0.6196601999981795,None,P147,001,2025-04-11_07h57.11.692,posner_endo_new1,2024.2.4,60.01867781501624,2025-04-11 07h57.17.807812 +0100,
cube_l.png,0.1,-0.31,valid,53,53,0,down,4.761168099998031,None,space,0.363580200006254,None,,,,,,,,,0,53,53,53,1813.0667195999995,,,,,,,,,,,,,1813.053319499988,1813.0667195999995,1813.0667195999995,1813.0667195999995,1817.8310533999902,,,,1817.8534771999985,1817.865714799991,1817.865714799991,1817.8947055999888,1817.8951203999895,1817.9110572999925,1817.9110572999925,1817.9110572999925,1817.9943015999888,1818.2790589999931,,,,,,,,,,,,,,,,,,,,,,down,4.761168099998031,None,space,0.363580200006254,None,P147,001,2025-04-11_07h57.11.692,posner_endo_new1,2024.2.4,60.01867781501624,2025-04-11 07h57.17.807812 +0100,
cube_r.png,0.1,10,catch,54,54,0,down,3.997056899999734,None,space,0.5110668999986956,None,,,,,,,,,0,54,54,54,1818.2940297999885,,,,,,,,,,,,,1818.2793936999951,1818.2940297999885,1818.2940297999885,1818.2940297999885,1822.3081227999937,,,,1822.3207752999879,1822.3305200999894,1822.3305200999894,1822.3732945999946,1822.373569999996,1822.3899023999984,1822.3899023999984,1822.3899023999984,1822.4737351999938,1822.9092527999892,,,,,,,,,,,,,,,,,,,,,,down,3.997056899999734,None,space,0.5110668999986956,None,P147,001,2025-04-11_07h57.11.692,posner_endo_new1,2024.2.4,60.01867781501624,2025-04-11 07h57.17.807812 +0100,
cube_l.png,0.1,0.31,invalid,55,55,0,down,35.92026139999507,None,space,0.40759069999330677,None,,,,,,,,,0,55,55,55,1822.9235159999953,,,,,,,,,,,,,1822.909874799996,1822.9235159999953,1822.9235159999953,1822.9235159999953,1858.8556100999995,,,,1858.8764438999933,1858.8870271999913,1858.8870271999913,1858.9194156999874,1858.9198723000009,1858.9358744999918,1858.9358744999918,1858.9358744999918,1859.0192315999884,1859.3533743000007,,,,,,,,,,,,,,,,,,,,,,down,35.92026139999507,None,space,0.40759069999330677,None,P147,001,2025-04-11_07h57.11.692,posner_endo_new1,2024.2.4,60.01867781501624,2025-04-11 07h57.17.807812 +0100,
cube_l.png,0.1,-0.31,valid,56,56,0,down,4.898662199993851,None,space,0.5942259000003105,None,,,,,,,,,0,56,56,56,1859.3690353999991,,,,,,,,,,,,,1859.3536617999926,1859.3690353999991,1859.3690353999991,1859.3690353999991,1864.2816590000002,,,,1864.2912391999998,1864.3014718999912,1864.3014718999912,1864.3474168999965,1864.3477406999882,1864.363611199995,1864.363611199995,1864.363611199995,1864.4472031999903,1864.9642656999931,,,,,,,,,,,,,,,,,,,,,,down,4.898662199993851,None,space,0.5942259000003105,None,P147,001,2025-04-11_07h57.11.692,posner_endo_new1,2024.2.4,60.01867781501624,2025-04-11 07h57.17.807812 +0100,
cube_r.png,0.1,0.31,valid,57,57,0,down,5.807361600003787,None,space,0.571069700003136,None,,,,,,,,,0,57,57,57,1864.9800037999958,,,,,,,,,,,,,1864.9645335999958,1864.9800037999958,1864.9800037999958,1864.9800037999958,1870.791883599988,,,,1870.8014475999953,1870.81174189999,1870.81174189999,1870.857034799992,1870.8573575999908,1870.8739644000016,1870.8739644000016,1870.8739644000016,1870.9571025999903,1871.4573541999998,,,,,,,,,,,,,,,,,,,,,,down,5.807361600003787,None,space,0.571069700003136,None,P147,001,2025-04-11_07h57.11.692,posner_endo_new1,2024.2.4,60.01867781501624,2025-04-11 07h57.17.807812 +0100,
cube_r.png,0.1,-0.31,invalid,58,58,0,down,6.745906600001035,None,space,0.42598659999202937,None,,,,,,,,,0,58,58,58,1871.4734242999984,,,,,,,,,,,,,1871.4576133999944,1871.4734242999984,1871.4734242999984,1871.4734242999984,1878.2340392999904,,,,1878.2435975999979,1878.253874499991,1878.253874499991,1878.2995368999982,1878.2998507000011,1878.3160115999926,1878.3160115999926,1878.3160115999926,1878.399591399997,1878.750444499994,,,,,,,,,,,,,,,,,,,,,,down,6.745906600001035,None,space,0.42598659999202937,None,P147,001,2025-04-11_07h57.11.692,posner_endo_new1,2024.2.4,60.01867781501624,2025-04-11 07h57.17.807812 +0100,
cube_l.png,0.1,0.31,invalid,59,59,0,down,4.805683600003249,None,space,0.37820609999471344,None,,,,,,,,,0,59,59,59,1878.765618599995,,,,,,,,,,,,,1878.7507072000008,1878.765618599995,1878.765618599995,1878.765618599995,1883.5786832999875,,,,1883.588207199995,1883.5986547999928,1883.5986547999928,1883.6442027999874,1883.6445368999994,1883.6608774999913,1883.6608774999913,1883.6608774999913,1883.7437839999911,1884.0447530999954,,,,,,,,,,,,,,,,,,,,,,down,4.805683600003249,None,space,0.37820609999471344,None,P147,001,2025-04-11_07h57.11.692,posner_endo_new1,2024.2.4,60.01867781501624,2025-04-11 07h57.17.807812 +0100,
