cue_img,cue_soa,target_x,trial,thisN,thisTrialN,thisRepN,key_control2.keys,key_control2.rt,key_control2.duration,key_resp.keys,key_resp.rt,key_resp.duration,practice.thisRepN,practice.thisTrialN,practice.thisN,practice.thisIndex,block1.thisRepN,block1.thisTrialN,block1.thisN,block1.thisIndex,block2.thisRepN,block2.thisTrialN,block2.thisN,block2.thisIndex,thisRow.t,notes,instructions.started,instructions_txt.started,key_control.started,instructions.stopped,key_control.keys,key_control.rt,key_control.duration,ready.started,ready_txt.started,ready_txt.stopped,ready.stopped,fix.started,fixation.started,key_control2.started,fixation_cross.started,fix.stopped,practice.key_control2.keys,practice.key_control2.rt,practice.key_control2.duration,cue.started,cube.started,fixation_cross_cue.started,cue.stopped,target.started,fixation_target.started,fixation_cross_target.started,key_resp.started,star.started,target.stopped,practice.key_resp.keys,practice.key_resp.rt,practice.key_resp.duration,star.stopped,fixation_target.stopped,fixation_cross_target.stopped,key_resp.stopped,block1.key_control2.keys,block1.key_control2.rt,block1.key_control2.duration,block1.key_resp.keys,block1.key_resp.rt,block1.key_resp.duration,break_2.started,text.started,key_control3.started,text.stopped,break_2.stopped,key_control3.keys,key_control3.rt,key_control3.duration,block2.key_control2.keys,block2.key_control2.rt,block2.key_control2.duration,block2.key_resp.keys,block2.key_resp.rt,block2.key_resp.duration,participant,session,date,expName,psychopyVersion,frameRate,expStart,
,,,,,,,,,,,,,,,,,,,,,,,,,,,0.007482799992430955,0.023149000000557862,0.023149000000557862,431.336327099998,up,431.3009718999965,None,,,,,,,,,,,,,,,,,,,,,,,,,,,,,,,,,,,,,,,,,,,,,,,,,,P148,001,2025-04-11_08h58.44.825,posner_endo_new1,2024.2.4,59.939928203592224,2025-04-11 08h58.50.543807 +0100,
,,,,,,,,,,,,,,,,,,,,,,,,,,,,,,,,,,431.33638059999794,431.3491323999915,434.3491934999911,434.32994419999886,,,,,,,,,,,,,,,,,,,,,,,,,,,,,,,,,,,,,,,,,,,,,,P148,001,2025-04-11_08h58.44.825,posner_endo_new1,2024.2.4,59.939928203592224,2025-04-11 08h58.50.543807 +0100,
cube_l.png,0.1,0.31,invalid,0,0,0,down,25.630452299999888,None,space,0.633221299998695,None,0,0,0,5,,,,,,,,,434.3491934999911,,,,,,,,,,,,,434.33731350000016,434.3491934999911,434.3491934999911,434.3491934999911,459.9873002999957,down,25.630452299999888,None,459.9988313999929,460.0089559999906,460.0089559999906,460.05322049999086,460.0534602999978,460.06978479999816,460.06978479999816,460.06978479999816,460.1531382999965,460.71984389999125,space,0.633221299998695,None,,,,,,,,,,,,,,,,,,,,,,,,,P148,001,2025-04-11_08h58.44.825,posner_endo_new1,2024.2.4,59.939928203592224,2025-04-11 08h58.50.543807 +0100,
cube_r.png,0.1,-0.31,invalid,1,1,0,down,11.740023699996527,None,space,0.40112280000175815,None,0,1,1,2,,,,,,,,,460.7357309999934,,,,,,,,,,,,,460.7200115000014,460.7357309999934,460.7357309999934,460.7357309999934,472.49122779999743,down,11.740023699996527,None,472.4982806999906,472.5102799000015,472.5102799000015,472.5571715999977,472.5574476000038,472.57374849999906,472.57374849999906,472.57374849999906,472.640270399992,472.99071240000194,space,0.40112280000175815,None,,,,,,,,,,,,,,,,,,,,,,,,,P148,001,2025-04-11_08h58.44.825,posner_endo_new1,2024.2.4,59.939928203592224,2025-04-11 08h58.50.543807 +0100,
cube_r.png,0.1,-0.31,invalid,2,2,0,down,13.981536499995855,None,space,0.45869449999008793,None,0,2,2,6,,,,,,,,,473.00657279998995,,,,,,,,,,,,,472.99092050000036,473.00657279998995,473.00657279998995,473.00657279998995,486.99332270000014,down,13.981536499995855,None,487.00594089999504,487.01608499999566,487.01608499999566,487.0585948999942,487.059007799995,487.07503670000006,487.07503670000006,487.07503670000006,487.15830840000126,487.5428491999919,space,0.45869449999008793,None,,,,,,,,,,,,,,,,,,,,,,,,,P148,001,2025-04-11_08h58.44.825,posner_endo_new1,2024.2.4,59.939928203592224,2025-04-11 08h58.50.543807 +0100,
cube_l.png,0.1,-0.31,valid,3,3,0,down,7.821398799991584,None,space,0.3740849000023445,None,0,3,3,4,,,,,,,,,487.5578746999963,,,,,,,,,,,,,487.5431716000021,487.5578746999963,487.5578746999963,487.5578746999963,495.38485799999034,down,7.821398799991584,None,495.3973222999921,495.40780869999435,495.40780869999435,495.4502638999984,495.4505540999962,495.46686479999335,495.46686479999335,495.46686479999335,495.55014819999633,495.85090659999696,space,0.3740849000023445,None,,,,,,,,,,,,,,,,,,,,,,,,,P148,001,2025-04-11_08h58.44.825,posner_endo_new1,2024.2.4,59.939928203592224,2025-04-11 08h58.50.543807 +0100,
cube_l.png,0.1,-0.31,valid,4,4,0,down,11.761218399988138,None,space,0.36202420000336133,None,0,4,4,0,,,,,,,,,495.8665566999989,,,,,,,,,,,,,495.8511206999974,495.8665566999989,495.8665566999989,495.8665566999989,507.63874249999935,down,11.761218399988138,None,507.65161590000207,507.6617491999932,507.6617491999932,507.7041181999957,507.70452549999754,507.72059029999946,507.72059029999946,507.72059029999946,507.8038158999989,508.0883290999918,space,0.36202420000336133,None,,,,,,,,,,,,,,,,,,,,,,,,,P148,001,2025-04-11_08h58.44.825,posner_endo_new1,2024.2.4,59.939928203592224,2025-04-11 08h58.50.543807 +0100,
cube_l.png,0.1,-0.31,valid,5,5,0,down,9.26806580000266,None,space,0.26269560000218917,None,0,5,5,8,,,,,,,,,508.10351299999456,,,,,,,,,,,,,508.08864750000066,508.10351299999456,508.10351299999456,508.10351299999456,517.3789265999949,down,9.26806580000266,None,517.3913830999954,517.401543999993,517.401543999993,517.4441742999916,517.4445865000016,517.4606150000036,517.4606150000036,517.4606150000036,517.5443692999979,517.7283850999956,space,0.26269560000218917,None,,,,,,,,,,,,,,,,,,,,,,,,,P148,001,2025-04-11_08h58.44.825,posner_endo_new1,2024.2.4,59.939928203592224,2025-04-11 08h58.50.543807 +0100,
cube_r.png,0.1,0.31,valid,6,6,0,down,9.219977100001415,None,space,0.3185574999952223,None,0,6,6,7,,,,,,,,,517.7440997999947,,,,,,,,,,,,,517.7286083999934,517.7440997999947,517.7440997999947,517.7440997999947,526.9688663999987,down,9.219977100001415,None,526.9772701000038,526.9875765000033,526.9875765000033,527.0347764999897,527.035069599995,527.051317599995,527.051317599995,527.051317599995,527.1344738999906,527.3852135999914,space,0.3185574999952223,None,,,,,,,,,,,,,,,,,,,,,,,,,P148,001,2025-04-11_08h58.44.825,posner_endo_new1,2024.2.4,59.939928203592224,2025-04-11 08h58.50.543807 +0100,
cube_r.png,0.1,10,catch,7,7,0,down,13.099159100005636,None,None,,,0,7,7,3,,,,,,,,,527.401005199994,,,,,,,,,,,,,527.3854290000017,527.401005199994,527.401005199994,527.401005199994,540.5052725999994,down,13.099159100005636,None,540.5137738999911,540.5240025999956,540.5240025999956,540.5708478000015,540.5713736000034,540.5872251999972,540.5872251999972,540.5872251999972,540.6704846999928,543.585147699996,None,,,542.6851937000029,543.6009695999965,543.6009695999965,543.6009695999965,,,,,,,,,,,,,,,,,,,,,P148,001,2025-04-11_08h58.44.825,posner_endo_new1,2024.2.4,59.939928203592224,2025-04-11 08h58.50.543807 +0100,
cube_r.png,0.1,0.31,valid,8,8,0,down,9.067087399991578,None,space,0.4173022999893874,None,0,8,8,10,,,,,,,,,543.6009695999965,,,,,,,,,,,,,543.5854058999976,543.6009695999965,543.6009695999965,543.6009695999965,552.6763919999939,down,9.067087399991578,None,552.6878424000024,552.6983337999991,552.6983337999991,552.741755199997,552.7421228000021,552.758460099998,552.758460099998,552.758460099998,552.8415479999967,553.1924507999938,space,0.4173022999893874,None,,,,,,,,,,,,,,,,,,,,,,,,,P148,001,2025-04-11_08h58.44.825,posner_endo_new1,2024.2.4,59.939928203592224,2025-04-11 08h58.50.543807 +0100,
cube_r.png,0.1,-0.31,invalid,9,9,0,down,10.836749099995359,None,space,0.5104783999995561,None,0,9,9,9,,,,,,,,,553.2078768999927,,,,,,,,,,,,,553.192730499999,553.2078768999927,553.2078768999927,553.2078768999927,564.0480383999966,down,10.836749099995359,None,564.0594293000031,564.0698644999939,564.0698644999939,564.1134306000022,564.1137965999951,564.1299424000026,564.1299424000026,564.1299424000026,564.213225200001,564.6473535999976,space,0.5104783999995561,None,,,,,,,,,,,,,,,,,,,,,,,,,P148,001,2025-04-11_08h58.44.825,posner_endo_new1,2024.2.4,59.939928203592224,2025-04-11 08h58.50.543807 +0100,
cube_l.png,0.1,0.31,invalid,10,10,0,down,7.780934900001739,None,space,0.44962650000525173,None,0,10,10,1,,,,,,,,,564.6628850999987,,,,,,,,,,,,,564.6476275000023,564.6628850999987,564.6628850999987,564.6628850999987,572.4559666999994,down,7.780934900001739,None,572.4677585000027,572.4781333999999,572.4781333999999,572.5215867999941,572.5219522999978,572.5380066999933,572.5380066999933,572.5380066999933,572.6213233000017,572.9890668000007,space,0.44962650000525173,None,,,,,,,,,,,,,,,,,,,,,,,,,P148,001,2025-04-11_08h58.44.825,posner_endo_new1,2024.2.4,59.939928203592224,2025-04-11 08h58.50.543807 +0100,
,,,,,,,,,,,,,,,,,,,,,,,,,,,,,,,,,,572.9892588999937,573.004210500003,576.016043399999,575.9850979999901,,,,,,,,,,,,,,,,,,,,,,,,,,,,,,,,,,,,,,,,,,,,,,P148,001,2025-04-11_08h58.44.825,posner_endo_new1,2024.2.4,59.939928203592224,2025-04-11 08h58.50.543807 +0100,
cube_l.png,0.1,10,catch,0,0,0,down,14.467197599995416,None,None,,,,,,,0,0,0,0,,,,,576.016043399999,,,,,,,,,,,,,576.0066888000001,576.016043399999,576.016043399999,576.016043399999,590.4876052000036,,,,590.499221399994,590.5096293999959,590.5096293999959,590.5530164999946,590.5532867000002,590.5695188999962,590.5695188999962,590.5695188999962,590.6527172999922,593.567112299992,,,,592.6674038999918,593.5831100999931,593.5831100999931,593.5831100999931,down,14.467197599995416,None,None,,,,,,,,,,,,,,,,,P148,001,2025-04-11_08h58.44.825,posner_endo_new1,2024.2.4,59.939928203592224,2025-04-11 08h58.50.543807 +0100,
cube_l.png,0.1,10,catch,1,1,0,down,5.220650699993712,None,None,,,,,,,0,1,1,1,,,,,593.5831100999931,,,,,,,,,,,,,593.5673020999966,593.5831100999931,593.5831100999931,593.5831100999931,598.8120759000012,,,,598.8194835000031,598.8306142999936,598.8306142999936,598.8778571000003,598.8783847000013,598.8942482999992,598.8942482999992,598.8942482999992,598.9775024999981,601.8920007999986,,,,600.9922300000035,601.9079170999903,601.9079170999903,601.9079170999903,down,5.220650699993712,None,None,,,,,,,,,,,,,,,,,P148,001,2025-04-11_08h58.44.825,posner_endo_new1,2024.2.4,59.939928203592224,2025-04-11 08h58.50.543807 +0100,
cube_l.png,0.1,0.31,invalid,2,2,0,down,7.575609199993778,None,space,0.45727009999973234,None,,,,,0,2,2,2,,,,,601.9079170999903,,,,,,,,,,,,,601.8922631000023,601.9079170999903,601.9079170999903,601.9079170999903,609.4848146000004,,,,609.4957869999926,609.506049299991,609.506049299991,609.550362199996,609.5507065999991,609.566835199992,609.566835199992,609.566835199992,609.65000709999,610.0341840000037,,,,,,,,down,7.575609199993778,None,space,0.45727009999973234,None,,,,,,,,,,,,,,,P148,001,2025-04-11_08h58.44.825,posner_endo_new1,2024.2.4,59.939928203592224,2025-04-11 08h58.50.543807 +0100,
cube_l.png,0.1,0.31,invalid,3,3,0,down,9.258562499991967,None,space,0.5102431999985129,None,,,,,0,3,3,3,,,,,610.0495247999934,,,,,,,,,,,,,610.0344756999984,610.0495247999934,610.0495247999934,610.0495247999934,619.3247140000021,,,,619.335061299993,619.3445253999962,619.3445253999962,619.3903681999946,619.390607399997,619.4066671000037,619.4066671000037,619.4066671000037,619.489975199991,619.923687100003,,,,,,,,down,9.258562499991967,None,space,0.5102431999985129,None,,,,,,,,,,,,,,,P148,001,2025-04-11_08h58.44.825,posner_endo_new1,2024.2.4,59.939928203592224,2025-04-11 08h58.50.543807 +0100,
cube_l.png,0.1,-0.31,valid,4,4,0,down,12.951868900010595,None,space,0.3773944999993546,None,,,,,0,4,4,4,,,,,619.9394383000035,,,,,,,,,,,,,619.9238686000026,619.9394383000035,619.9394383000035,619.9394383000035,632.8938767999934,,,,632.8997556999966,632.9113579999976,632.9113579999976,632.9596446999931,632.9598903000006,632.9761767000018,632.9761767000018,632.9761767000018,633.0594803999993,633.3596920999989,,,,,,,,down,12.951868900010595,None,space,0.3773944999993546,None,,,,,,,,,,,,,,,P148,001,2025-04-11_08h58.44.825,posner_endo_new1,2024.2.4,59.939928203592224,2025-04-11 08h58.50.543807 +0100,
cube_r.png,0.1,-0.31,invalid,5,5,0,down,9.427662200003397,None,space,0.3357719000050565,None,,,,,0,5,5,5,,,,,633.3757313999959,,,,,,,,,,,,,633.3598702000018,633.3757313999959,633.3757313999959,633.3757313999959,642.8169826999947,,,,642.8230017000024,642.8344454999897,642.8344454999897,642.882815799996,642.8830732999922,642.8993577999936,642.8993577999936,642.8993577999936,642.982666099997,643.2497751999908,,,,,,,,down,9.427662200003397,None,space,0.3357719000050565,None,,,,,,,,,,,,,,,P148,001,2025-04-11_08h58.44.825,posner_endo_new1,2024.2.4,59.939928203592224,2025-04-11 08h58.50.543807 +0100,
cube_r.png,0.1,0.31,valid,6,6,0,down,12.858176099995035,None,space,0.34087249998992775,None,,,,,0,6,6,6,,,,,643.2656461000006,,,,,,,,,,,,,643.2499508999899,643.2656461000006,643.2656461000006,643.2656461000006,656.1367192999896,,,,656.1426987000013,656.1543187999923,656.1543187999923,656.2026050999993,656.202867,656.2191327000037,656.2191327000037,656.2191327000037,656.2857741999906,656.5694567000028,,,,,,,,down,12.858176099995035,None,space,0.34087249998992775,None,,,,,,,,,,,,,,,P148,001,2025-04-11_08h58.44.825,posner_endo_new1,2024.2.4,59.939928203592224,2025-04-11 08h58.50.543807 +0100,
cube_r.png,0.1,-0.31,invalid,7,7,0,down,10.289831300004153,None,space,0.367421299990383,None,,,,,0,7,7,7,,,,,656.5853203000006,,,,,,,,,,,,,656.5696329999919,656.5853203000006,656.5853203000006,656.5853203000006,666.8765306999994,,,,666.8865431000013,666.8962093000009,666.8962093000009,666.9414164999907,666.941674799993,666.9581240999978,666.9581240999978,666.9581240999978,667.0413779999944,667.3418886,,,,,,,,down,10.289831300004153,None,space,0.367421299990383,None,,,,,,,,,,,,,,,P148,001,2025-04-11_08h58.44.825,posner_endo_new1,2024.2.4,59.939928203592224,2025-04-11 08h58.50.543807 +0100,
cube_l.png,0.1,-0.31,valid,8,8,0,down,8.621749800004181,None,space,0.2730669000011403,None,,,,,0,8,8,8,,,,,667.3576355999976,,,,,,,,,,,,,667.3420774999977,667.3576355999976,667.3576355999976,667.3576355999976,675.9832134000026,,,,675.9900500999938,676.0018256000039,676.0018256000039,676.0489203000034,676.0491746999905,676.0654434000026,676.0654434000026,676.0654434000026,676.1487841999915,676.3493306000018,,,,,,,,down,8.621749800004181,None,space,0.2730669000011403,None,,,,,,,,,,,,,,,P148,001,2025-04-11_08h58.44.825,posner_endo_new1,2024.2.4,59.939928203592224,2025-04-11 08h58.50.543807 +0100,
cube_r.png,0.1,-0.31,invalid,9,9,0,down,8.518363900002441,None,space,0.47832030001154635,None,,,,,0,9,9,9,,,,,676.365074100002,,,,,,,,,,,,,676.3495331000013,676.365074100002,676.365074100002,676.365074100002,684.8904743000021,,,,684.8973510999931,684.9089012999902,684.9089012999902,684.9563077999919,684.956563899992,684.9729424999969,684.9729424999969,684.9729424999969,685.0395768000017,685.4568349000037,,,,,,,,down,8.518363900002441,None,space,0.47832030001154635,None,,,,,,,,,,,,,,,P148,001,2025-04-11_08h58.44.825,posner_endo_new1,2024.2.4,59.939928203592224,2025-04-11 08h58.50.543807 +0100,
cube_l.png,0.1,0.31,invalid,10,10,0,down,10.1310061999975,None,space,0.39813659999344964,None,,,,,0,10,10,10,,,,,685.4724321999965,,,,,,,,,,,,,685.4570279999898,685.4724321999965,685.4724321999965,685.4724321999965,695.612965399996,,,,695.619781100002,695.6315634999919,695.6315634999919,695.678885699992,695.6791368999984,695.6953931000025,695.6953931000025,695.6953931000025,695.7785702999972,696.0958261999913,,,,,,,,down,10.1310061999975,None,space,0.39813659999344964,None,,,,,,,,,,,,,,,P148,001,2025-04-11_08h58.44.825,posner_endo_new1,2024.2.4,59.939928203592224,2025-04-11 08h58.50.543807 +0100,
cube_r.png,0.1,-0.31,invalid,11,11,0,down,10.547728599995025,None,space,0.3769421000033617,None,,,,,0,11,11,11,,,,,696.1116998999933,,,,,,,,,,,,,696.0960169000027,696.1116998999933,696.1116998999933,696.1116998999933,706.6683178999956,,,,706.6751415999897,706.6868308999983,706.6868308999983,706.7340922000003,706.734342900003,706.7507562999963,706.7507562999963,706.7507562999963,706.8338928000012,707.1343858000037,,,,,,,,down,10.547728599995025,None,space,0.3769421000033617,None,,,,,,,,,,,,,,,P148,001,2025-04-11_08h58.44.825,posner_endo_new1,2024.2.4,59.939928203592224,2025-04-11 08h58.50.543807 +0100,
cube_r.png,0.1,0.31,valid,12,12,0,down,8.845027499992284,None,space,0.3439518999948632,None,,,,,0,12,12,12,,,,,707.150404,,,,,,,,,,,,,707.1345754999929,707.150404,707.150404,707.150404,716.0090023999946,,,,716.0184456999996,716.0287286999956,716.0287286999956,716.074660600003,716.0749822999933,716.0911894000019,716.0911894000019,716.0911894000019,716.1746291000018,716.4418990999984,,,,,,,,down,8.845027499992284,None,space,0.3439518999948632,None,,,,,,,,,,,,,,,P148,001,2025-04-11_08h58.44.825,posner_endo_new1,2024.2.4,59.939928203592224,2025-04-11 08h58.50.543807 +0100,
cube_l.png,0.1,10,catch,13,13,0,down,7.025909199990565,None,None,,,,,,,0,13,13,13,,,,,716.4574185999954,,,,,,,,,,,,,716.4421635000035,716.4574185999954,716.4574185999954,716.4574185999954,723.4850589999987,,,,723.4940902999952,723.5038746999926,723.5038746999926,723.5503946999961,723.5506388999929,723.566777400003,723.566777400003,723.566777400003,723.6501543999912,726.5642429,,,,725.6647636999987,726.5804693999962,726.5804693999962,726.5804693999962,down,7.025909199990565,None,None,,,,,,,,,,,,,,,,,P148,001,2025-04-11_08h58.44.825,posner_endo_new1,2024.2.4,59.939928203592224,2025-04-11 08h58.50.543807 +0100,
cube_r.png,0.1,-0.31,invalid,14,14,0,down,7.350893599999836,None,space,0.3383590000012191,None,,,,,0,14,14,14,,,,,726.5804693999962,,,,,,,,,,,,,726.5644085999957,726.5804693999962,726.5804693999962,726.5804693999962,733.9402050999925,,,,733.9465100999951,733.9581687000027,733.9581687000027,734.0061597000022,734.0063993999938,734.022842499995,734.022842499995,734.022842499995,734.0894258999906,734.3732004999911,,,,,,,,down,7.350893599999836,None,space,0.3383590000012191,None,,,,,,,,,,,,,,,P148,001,2025-04-11_08h58.44.825,posner_endo_new1,2024.2.4,59.939928203592224,2025-04-11 08h58.50.543807 +0100,
cube_l.png,0.1,-0.31,valid,15,15,0,down,9.102787299998454,None,space,0.3514331000042148,None,,,,,0,15,15,15,,,,,734.3892175999936,,,,,,,,,,,,,734.3733829999983,734.3892175999936,734.3892175999936,734.3892175999936,743.4970899000036,,,,743.5038227999903,743.5157210999896,743.5157210999896,743.5629449999979,743.5633979999984,743.5793530999945,743.5793530999945,743.5793530999945,743.6626086000033,743.9471635999944,,,,,,,,down,9.102787299998454,None,space,0.3514331000042148,None,,,,,,,,,,,,,,,P148,001,2025-04-11_08h58.44.825,posner_endo_new1,2024.2.4,59.939928203592224,2025-04-11 08h58.50.543807 +0100,
cube_r.png,0.1,10,catch,16,16,0,down,14.082047999996576,None,None,,,,,,,0,16,16,16,,,,,743.9624597999937,,,,,,,,,,,,,743.9474246000027,743.9624597999937,743.9624597999937,743.9624597999937,758.0490913999965,,,,758.055036699996,758.0665057000006,758.0665057000006,758.1145823999977,758.1149847999914,758.1310326999956,758.1310326999956,758.1310326999956,758.2143106000003,761.1290595000028,,,,760.2289208000002,761.1450138999935,761.1450138999935,761.1450138999935,down,14.082047999996576,None,None,,,,,,,,,,,,,,,,,P148,001,2025-04-11_08h58.44.825,posner_endo_new1,2024.2.4,59.939928203592224,2025-04-11 08h58.50.543807 +0100,
cube_r.png,0.1,10,catch,17,17,0,down,6.874247400002787,None,None,,,,,,,0,17,17,17,,,,,761.1450138999935,,,,,,,,,,,,,761.1292698999896,761.1450138999935,761.1450138999935,761.1450138999935,768.0222915999911,,,,768.0305567000032,768.040971800001,768.040971800001,768.0881401999941,768.0884300999896,768.1045549999981,768.1045549999981,768.1045549999981,768.1878598000039,771.1021295999963,,,,770.2024414999905,771.1181886999984,771.1181886999984,771.1181886999984,down,6.874247400002787,None,None,,,,,,,,,,,,,,,,,P148,001,2025-04-11_08h58.44.825,posner_endo_new1,2024.2.4,59.939928203592224,2025-04-11 08h58.50.543807 +0100,
cube_l.png,0.1,0.31,invalid,18,18,0,down,8.318118199997116,None,space,0.4769750999985263,None,,,,,0,18,18,18,,,,,771.1181886999984,,,,,,,,,,,,,771.1023408000037,771.1181886999984,771.1181886999984,771.1181886999984,779.444101999994,,,,779.4523370999959,779.4625987999898,779.4625987999898,779.5097438999946,779.5100336000032,779.526266300003,779.526266300003,779.526266300003,779.6094834999967,780.0100206999923,,,,,,,,down,8.318118199997116,None,space,0.4769750999985263,None,,,,,,,,,,,,,,,P148,001,2025-04-11_08h58.44.825,posner_endo_new1,2024.2.4,59.939928203592224,2025-04-11 08h58.50.543807 +0100,
cube_l.png,0.1,10,catch,19,19,0,down,12.473591300004045,None,None,,,,,,,0,19,19,19,,,,,780.0257062000019,,,,,,,,,,,,,780.010260199997,780.0257062000019,780.0257062000019,780.0257062000019,792.5138144999946,,,,792.5220329000003,792.5325256999931,792.5325256999931,792.5796855999943,792.5799740999937,792.5961519999983,792.5961519999983,792.5961519999983,792.6793879999896,795.5937410999904,,,,794.6941090999899,795.6098232999939,795.6098232999939,795.6098232999939,down,12.473591300004045,None,None,,,,,,,,,,,,,,,,,P148,001,2025-04-11_08h58.44.825,posner_endo_new1,2024.2.4,59.939928203592224,2025-04-11 08h58.50.543807 +0100,
cube_l.png,0.1,0.31,invalid,20,20,0,down,10.09727890000795,None,space,0.40250100000412203,None,,,,,0,20,20,20,,,,,795.6098232999939,,,,,,,,,,,,,795.5939568000031,795.6098232999939,795.6098232999939,795.6098232999939,805.7170910999994,,,,805.7253885999962,805.7356746000005,805.7356746000005,805.7828602999944,805.7831742999988,805.7993151999981,805.7993151999981,805.7993151999981,805.8824613000033,806.2165781999938,,,,,,,,down,10.09727890000795,None,space,0.40250100000412203,None,,,,,,,,,,,,,,,P148,001,2025-04-11_08h58.44.825,posner_endo_new1,2024.2.4,59.939928203592224,2025-04-11 08h58.50.543807 +0100,
cube_l.png,0.1,-0.31,valid,21,21,0,down,14.82743579999078,None,space,0.5330783999961568,None,,,,,0,21,21,21,,,,,806.2322778999951,,,,,,,,,,,,,806.2168137999979,806.2322778999951,806.2322778999951,806.2322778999951,821.0681574999908,,,,821.0764409999974,821.0865140999958,821.0865140999958,821.1338766999979,821.1344322999939,821.1502854999999,821.1502854999999,821.1502854999999,821.2335332999937,821.6853512999951,,,,,,,,down,14.82743579999078,None,space,0.5330783999961568,None,,,,,,,,,,,,,,,P148,001,2025-04-11_08h58.44.825,posner_endo_new1,2024.2.4,59.939928203592224,2025-04-11 08h58.50.543807 +0100,
cube_r.png,0.1,0.31,valid,22,22,0,down,11.48762899999565,None,space,0.399794999990263,None,,,,,0,22,22,22,,,,,821.6996837999905,,,,,,,,,,,,,821.6858355000004,821.6996837999905,821.6996837999905,821.6996837999905,833.1901262000029,,,,833.2082832000015,833.2197375999967,833.2197375999967,833.2548359999928,833.2554303999932,833.2712245000002,833.2712245000002,833.2712245000002,833.3544384999987,833.6730247999949,,,,,,,,down,11.48762899999565,None,space,0.399794999990263,None,,,,,,,,,,,,,,,P148,001,2025-04-11_08h58.44.825,posner_endo_new1,2024.2.4,59.939928203592224,2025-04-11 08h58.50.543807 +0100,
cube_r.png,0.1,-0.31,invalid,23,23,0,down,9.156130899995333,None,space,0.40340560000913683,None,,,,,0,23,23,23,,,,,833.6874301999924,,,,,,,,,,,,,833.6734987999953,833.6874301999924,833.6874301999924,833.6874301999924,842.8469235999946,,,,842.8642483000003,842.8745836000016,842.8745836000016,842.9114158000011,842.9117734000029,842.9280467999924,842.9280467999924,842.9280467999924,843.0113043000019,843.3454990000027,,,,,,,,down,9.156130899995333,None,space,0.40340560000913683,None,,,,,,,,,,,,,,,P148,001,2025-04-11_08h58.44.825,posner_endo_new1,2024.2.4,59.939928203592224,2025-04-11 08h58.50.543807 +0100,
cube_r.png,0.1,0.31,valid,24,24,0,down,12.010442099999636,None,space,0.2926542000059271,None,,,,,0,24,24,24,,,,,843.3609132999991,,,,,,,,,,,,,843.3457892000006,843.3609132999991,843.3609132999991,843.3609132999991,855.3839009999938,,,,855.4022695000021,855.4132058999967,855.4132058999967,855.4487244999909,855.449099599995,855.4652076999919,855.4652076999919,855.4652076999919,855.5484849999921,855.7662999000022,,,,,,,,down,12.010442099999636,None,space,0.2926542000059271,None,,,,,,,,,,,,,,,P148,001,2025-04-11_08h58.44.825,posner_endo_new1,2024.2.4,59.939928203592224,2025-04-11 08h58.50.543807 +0100,
cube_r.png,0.1,-0.31,invalid,25,25,0,down,10.181761700005154,None,space,0.4110032000025967,None,,,,,0,25,25,25,,,,,855.7815143999906,,,,,,,,,,,,,855.7666014999995,855.7815143999906,855.7815143999906,855.7815143999906,865.9719263000006,,,,865.9791091999941,865.990621799996,865.990621799996,866.0377612000011,866.0382858999947,866.0542229999992,866.0542229999992,866.0542229999992,866.1374544999999,866.4722443999926,,,,,,,,down,10.181761700005154,None,space,0.4110032000025967,None,,,,,,,,,,,,,,,P148,001,2025-04-11_08h58.44.825,posner_endo_new1,2024.2.4,59.939928203592224,2025-04-11 08h58.50.543807 +0100,
cube_l.png,0.1,-0.31,valid,26,26,0,down,5.604115900001489,None,space,0.42572199999995064,None,,,,,0,26,26,26,,,,,866.4870833000023,,,,,,,,,,,,,866.4726794000017,866.4870833000023,866.4870833000023,866.4870833000023,872.0990457000007,,,,872.1062567999907,872.1174056000018,872.1174056000018,872.1648387000023,872.1653652999958,872.1812958999944,872.1812958999944,872.1812958999944,872.2645019999909,872.6161321999971,,,,,,,,down,5.604115900001489,None,space,0.42572199999995064,None,,,,,,,,,,,,,,,P148,001,2025-04-11_08h58.44.825,posner_endo_new1,2024.2.4,59.939928203592224,2025-04-11 08h58.50.543807 +0100,
cube_r.png,0.1,0.31,valid,27,27,0,down,8.052790500005358,None,space,1.144164199999068,None,,,,,0,27,27,27,,,,,872.6308163999929,,,,,,,,,,,,,872.6165681999992,872.6308163999929,872.6308163999929,872.6308163999929,880.6906157999911,,,,880.7017933000025,880.7121450999985,880.7121450999985,880.7561162999918,880.7564879999991,880.7728840999916,880.7728840999916,880.7728840999916,880.8558969000005,881.9227841999964,,,,,,,,down,8.052790500005358,None,space,1.144164199999068,None,,,,,,,,,,,,,,,P148,001,2025-04-11_08h58.44.825,posner_endo_new1,2024.2.4,59.939928203592224,2025-04-11 08h58.50.543807 +0100,
cube_r.png,0.1,10,catch,28,28,0,down,7.433929099992383,None,None,,,,,,,0,28,28,28,,,,,881.9381351999909,,,,,,,,,,,,,881.9231179999915,881.9381351999909,881.9381351999909,881.9381351999909,889.3816471000027,,,,889.3928901000036,889.4033052000013,889.4033052000013,889.4472531999927,889.4476143999927,889.4636526999966,889.4636526999966,889.4636526999966,889.5469688000012,892.4613660000032,,,,891.5615633999987,892.4773002000002,892.4773002000002,892.4773002000002,down,7.433929099992383,None,None,,,,,,,,,,,,,,,,,P148,001,2025-04-11_08h58.44.825,posner_endo_new1,2024.2.4,59.939928203592224,2025-04-11 08h58.50.543807 +0100,
cube_r.png,0.1,0.31,valid,29,29,0,down,11.886109700004454,None,space,0.7314123999967705,None,,,,,0,29,29,29,,,,,892.4773002000002,,,,,,,,,,,,,892.4616416999925,892.4773002000002,892.4773002000002,892.4773002000002,904.3665671999916,,,,904.3779240000003,904.3884007000015,904.3884007000015,904.4319445000001,904.4323193000018,904.4484759999905,904.4484759999905,904.4484759999905,904.5316125999962,905.1822758999915,,,,,,,,down,11.886109700004454,None,space,0.7314123999967705,None,,,,,,,,,,,,,,,P148,001,2025-04-11_08h58.44.825,posner_endo_new1,2024.2.4,59.939928203592224,2025-04-11 08h58.50.543807 +0100,
cube_r.png,0.1,0.31,valid,30,30,0,down,12.645694599996204,None,space,0.3987833999999566,None,,,,,0,30,30,30,,,,,905.1976739999955,,,,,,,,,,,,,905.1825680000038,905.1976739999955,905.1976739999955,905.1976739999955,917.8523561000038,,,,917.8595696999982,917.882992999992,917.882992999992,917.9180524999974,917.9185885999905,917.9344630999985,917.9344630999985,917.9344630999985,918.0176862999942,918.3360842999973,,,,,,,,down,12.645694599996204,None,space,0.3987833999999566,None,,,,,,,,,,,,,,,P148,001,2025-04-11_08h58.44.825,posner_endo_new1,2024.2.4,59.939928203592224,2025-04-11 08h58.50.543807 +0100,
cube_l.png,0.1,-0.31,valid,31,31,0,down,17.284754299995257,None,space,0.3672694999986561,None,,,,,0,31,31,31,,,,,918.3507119999995,,,,,,,,,,,,,918.3365402999916,918.3507119999995,918.3507119999995,918.3507119999995,935.6511534000019,,,,935.6624347999896,935.6729588000017,935.6729588000017,935.7165870000026,935.716954699994,935.7330376000027,935.7330376000027,935.7330376000027,935.816382399993,936.1174888999958,,,,,,,,down,17.284754299995257,None,space,0.3672694999986561,None,,,,,,,,,,,,,,,P148,001,2025-04-11_08h58.44.825,posner_endo_new1,2024.2.4,59.939928203592224,2025-04-11 08h58.50.543807 +0100,
cube_r.png,0.1,0.31,valid,32,32,0,down,9.671059900007094,None,space,0.3673525000049267,None,,,,,0,32,32,32,,,,,936.1327461999899,,,,,,,,,,,,,936.1177784000029,936.1327461999899,936.1327461999899,936.1327461999899,945.8075045000005,,,,945.818721299991,945.8291040999902,945.8291040999902,945.8731492999941,945.8735154000024,945.8892003999936,945.8892003999936,945.8892003999936,945.9725553000026,946.2736116000015,,,,,,,,down,9.671059900007094,None,space,0.3673525000049267,None,,,,,,,,,,,,,,,P148,001,2025-04-11_08h58.44.825,posner_endo_new1,2024.2.4,59.939928203592224,2025-04-11 08h58.50.543807 +0100,
cube_r.png,0.1,-0.31,invalid,33,33,0,down,15.618387099995743,None,space,0.378734899990377,None,,,,,0,33,33,33,,,,,946.2889487999928,,,,,,,,,,,,,946.273904200003,946.2889487999928,946.2889487999928,946.2889487999928,961.9240877999982,,,,961.9346421999944,961.9439688999992,961.9439688999992,961.9896386999899,961.9898864999996,962.0062491999997,962.0062491999997,962.0062491999997,962.0894563000038,962.3898804999917,,,,,,,,down,15.618387099995743,None,space,0.378734899990377,None,,,,,,,,,,,,,,,P148,001,2025-04-11_08h58.44.825,posner_endo_new1,2024.2.4,59.939928203592224,2025-04-11 08h58.50.543807 +0100,
cube_r.png,0.1,10,catch,34,34,0,down,13.229732799998601,None,space,0.3484143999958178,None,,,,,0,34,34,34,,,,,962.4058235999983,,,,,,,,,,,,,962.39007329999,962.4058235999983,962.4058235999983,962.4058235999983,975.6429235999967,,,,975.6496101999946,975.6612250000035,975.6612250000035,975.7089380999969,975.7091996999952,975.7254824999982,975.7254824999982,975.7254824999982,975.7920153000014,976.0760915999999,,,,,,,,down,13.229732799998601,None,space,0.3484143999958178,None,,,,,,,,,,,,,,,P148,001,2025-04-11_08h58.44.825,posner_endo_new1,2024.2.4,59.939928203592224,2025-04-11 08h58.50.543807 +0100,
cube_r.png,0.1,0.31,valid,35,35,0,down,8.935552299997653,None,space,0.5849960999912582,None,,,,,0,35,35,35,,,,,976.0916922000033,,,,,,,,,,,,,976.0762770000001,976.0916922000033,976.0916922000033,976.0916922000033,985.033900800001,,,,985.0477763999952,985.0582464999898,985.0582464999898,985.0994359000033,985.0997288999934,985.1159055000026,985.1159055000026,985.1159055000026,985.1991858999972,985.7163212000014,,,,,,,,down,8.935552299997653,None,space,0.5849960999912582,None,,,,,,,,,,,,,,,P148,001,2025-04-11_08h58.44.825,posner_endo_new1,2024.2.4,59.939928203592224,2025-04-11 08h58.50.543807 +0100,
cube_r.png,0.1,-0.31,invalid,36,36,0,down,6.311853000006522,None,space,0.397508399997605,None,,,,,0,36,36,36,,,,,985.7318495999934,,,,,,,,,,,,,985.7165476999944,985.7318495999934,985.7318495999934,985.7318495999934,992.0597557000001,,,,992.0680063000036,992.0782608000009,992.0782608000009,992.1255241000035,992.1258285999938,992.142068000001,992.142068000001,992.142068000001,992.2253179999971,992.5425690999982,,,,,,,,down,6.311853000006522,None,space,0.397508399997605,None,,,,,,,,,,,,,,,P148,001,2025-04-11_08h58.44.825,posner_endo_new1,2024.2.4,59.939928203592224,2025-04-11 08h58.50.543807 +0100,
cube_l.png,0.1,0.31,invalid,37,37,0,down,20.373508699995,None,space,0.33885349999764003,None,,,,,0,37,37,37,,,,,992.5582721999963,,,,,,,,,,,,,992.5428080999991,992.5582721999963,992.5582721999963,992.5582721999963,1012.9387261999946,,,,1012.9499800999911,1012.9604328999994,1012.9604328999994,1013.0041284999897,1013.0044919999928,1013.0206345999904,1013.0206345999904,1013.0206345999904,1013.1040188999905,1013.3715382999944,,,,,,,,down,20.373508699995,None,space,0.33885349999764003,None,,,,,,,,,,,,,,,P148,001,2025-04-11_08h58.44.825,posner_endo_new1,2024.2.4,59.939928203592224,2025-04-11 08h58.50.543807 +0100,
cube_l.png,0.1,0.31,invalid,38,38,0,down,10.640546800001175,None,space,0.3652814000088256,None,,,,,0,38,38,38,,,,,1013.3869377999945,,,,,,,,,,,,,1013.3718316000013,1013.3869377999945,1013.3869377999945,1013.3869377999945,1024.0438993999996,,,,1024.0551225999952,1024.0651868999994,1024.0651868999994,1024.1094073999993,1024.1097673999902,1024.125971100002,1024.125971100002,1024.125971100002,1024.209142599997,1024.4935433999926,,,,,,,,down,10.640546800001175,None,space,0.3652814000088256,None,,,,,,,,,,,,,,,P148,001,2025-04-11_08h58.44.825,posner_endo_new1,2024.2.4,59.939928203592224,2025-04-11 08h58.50.543807 +0100,
cube_r.png,0.1,0.31,valid,39,39,0,down,10.966360300008091,None,space,0.3888678999937838,None,,,,,0,39,39,39,,,,,1024.508890600002,,,,,,,,,,,,,1024.493837499991,1024.508890600002,1024.508890600002,1024.508890600002,1035.4817229999899,,,,1035.4889194999996,1035.500682400001,1035.500682400001,1035.5477356999909,1035.5479999999952,1035.5642376999895,1035.5642376999895,1035.5642376999895,1035.630743200003,1035.9646475999907,,,,,,,,down,10.966360300008091,None,space,0.3888678999937838,None,,,,,,,,,,,,,,,P148,001,2025-04-11_08h58.44.825,posner_endo_new1,2024.2.4,59.939928203592224,2025-04-11 08h58.50.543807 +0100,
cube_l.png,0.1,0.31,invalid,40,40,0,down,10.615199000007124,None,space,0.265643499995349,None,,,,,0,40,40,40,,,,,1035.9805422999925,,,,,,,,,,,,,1035.9648557000037,1035.9805422999925,1035.9805422999925,1035.9805422999925,1046.6037903999968,,,,1046.6110753999965,1046.6224415999895,1046.6224415999895,1046.669681600004,1046.6699507000012,1046.686110900002,1046.686110900002,1046.686110900002,1046.7694056000037,1046.953628599993,,,,,,,,down,10.615199000007124,None,space,0.265643499995349,None,,,,,,,,,,,,,,,P148,001,2025-04-11_08h58.44.825,posner_endo_new1,2024.2.4,59.939928203592224,2025-04-11 08h58.50.543807 +0100,
cube_l.png,0.1,10,catch,41,41,0,down,11.21905020000122,None,None,,,,,,,0,41,41,41,,,,,1046.969176300001,,,,,,,,,,,,,1046.9538306000031,1046.969176300001,1046.969176300001,1046.969176300001,1058.1919551000028,,,,1058.198309600004,1058.210011499992,1058.210011499992,1058.2578522999975,1058.2580912999983,1058.2743763000035,1058.2743763000035,1058.2743763000035,1058.3408314999979,1061.2719141999987,,,,1060.3556244999927,1061.287984399998,1061.287984399998,1061.287984399998,down,11.21905020000122,None,None,,,,,,,,,,,,,,,,,P148,001,2025-04-11_08h58.44.825,posner_endo_new1,2024.2.4,59.939928203592224,2025-04-11 08h58.50.543807 +0100,
cube_l.png,0.1,-0.31,valid,42,42,0,down,5.588052199993399,None,space,0.5272270000132266,None,,,,,0,42,42,42,,,,,1061.287984399998,,,,,,,,,,,,,1061.2720822999981,1061.287984399998,1061.287984399998,1061.287984399998,1066.8829904000013,,,,1066.8891019000002,1066.9006147999899,1066.9006147999899,1066.9488584999926,1066.9490954999928,1066.9653676000016,1066.9653676000016,1066.9653676000016,1067.032170099992,1067.4991403000022,,,,,,,,down,5.588052199993399,None,space,0.5272270000132266,None,,,,,,,,,,,,,,,P148,001,2025-04-11_08h58.44.825,posner_endo_new1,2024.2.4,59.939928203592224,2025-04-11 08h58.50.543807 +0100,
cube_l.png,0.1,10,catch,43,43,0,down,5.897162799999933,None,None,,,,,,,0,43,43,43,,,,,1067.514836000002,,,,,,,,,,,,,1067.499324599994,1067.514836000002,1067.514836000002,1067.514836000002,1073.4263433000015,,,,1073.4324074999895,1073.4439695000037,1073.4439695000037,1073.4920944999903,1073.4923340999958,1073.5088000999967,1073.5088000999967,1073.5088000999967,1073.5918768999982,1076.5060874999908,,,,1075.6066443000018,1076.5223020999983,1076.5223020999983,1076.5223020999983,down,5.897162799999933,None,None,,,,,,,,,,,,,,,,,P148,001,2025-04-11_08h58.44.825,posner_endo_new1,2024.2.4,59.939928203592224,2025-04-11 08h58.50.543807 +0100,
cube_l.png,0.1,0.31,invalid,44,44,0,down,4.977701700001489,None,space,0.37848769999982323,None,,,,,0,44,44,44,,,,,1076.5223020999983,,,,,,,,,,,,,1076.5062581999955,1076.5223020999983,1076.5223020999983,1076.5223020999983,1081.5015615000011,,,,1081.5075957999943,1081.519039699997,1081.519039699997,1081.56734899999,1081.5675857000024,1081.5838235999981,1081.5838235999981,1081.5838235999981,1081.6670550999988,1081.9675348000019,,,,,,,,down,4.977701700001489,None,space,0.37848769999982323,None,,,,,,,,,,,,,,,P148,001,2025-04-11_08h58.44.825,posner_endo_new1,2024.2.4,59.939928203592224,2025-04-11 08h58.50.543807 +0100,
cube_l.png,0.1,0.31,invalid,45,45,0,down,12.564917300012894,None,space,0.38267849999829195,None,,,,,0,45,45,45,,,,,1081.983456899994,,,,,,,,,,,,,1081.9677121999994,1081.983456899994,1081.983456899994,1081.983456899994,1094.5551464000018,,,,1094.5654476999916,1094.5750282999943,1094.5750282999943,1094.6205527999991,1094.6208078999916,1094.6369673000008,1094.6369673000008,1094.6369673000008,1094.7204256999976,1095.0210447999998,,,,,,,,down,12.564917300012894,None,space,0.38267849999829195,None,,,,,,,,,,,,,,,P148,001,2025-04-11_08h58.44.825,posner_endo_new1,2024.2.4,59.939928203592224,2025-04-11 08h58.50.543807 +0100,
cube_r.png,0.1,0.31,valid,46,46,0,down,9.998437700007344,None,space,0.39203300001099706,None,,,,,0,46,46,46,,,,,1095.0367466000025,,,,,,,,,,,,,1095.0212337999983,1095.0367466000025,1095.0367466000025,1095.0367466000025,1105.0446423999965,,,,1105.0560434999934,1105.0664793999895,1105.0664793999895,1105.1099202999903,1105.1102850000025,1105.1263799000008,1105.1263799000008,1105.1263799000008,1105.2095469999913,1105.5268454999896,,,,,,,,down,9.998437700007344,None,space,0.39203300001099706,None,,,,,,,,,,,,,,,P148,001,2025-04-11_08h58.44.825,posner_endo_new1,2024.2.4,59.939928203592224,2025-04-11 08h58.50.543807 +0100,
cube_l.png,0.1,-0.31,valid,47,47,0,down,10.300825800004532,None,space,0.3244773000042187,None,,,,,0,47,47,47,,,,,1105.5426486999932,,,,,,,,,,,,,1105.5270448999945,1105.5426486999932,1105.5426486999932,1105.5426486999932,1115.8497918999929,,,,1115.8570503999945,1115.8680463999917,1115.8680463999917,1115.9154579000024,1115.915992299997,1115.9318389999971,1115.9318389999971,1115.9318389999971,1116.0151158999943,1116.2668896999967,,,,,,,,down,10.300825800004532,None,space,0.3244773000042187,None,,,,,,,,,,,,,,,P148,001,2025-04-11_08h58.44.825,posner_endo_new1,2024.2.4,59.939928203592224,2025-04-11 08h58.50.543807 +0100,
cube_r.png,0.1,-0.31,invalid,48,48,0,down,5.593823799994425,None,space,0.4228319999965606,None,,,,,0,48,48,48,,,,,1116.2815018999972,,,,,,,,,,,,,1116.267326999994,1116.2815018999972,1116.2815018999972,1116.2815018999972,1121.8772635999921,,,,1121.8884827000002,1121.8989169999986,1121.8989169999986,1121.9425443999935,1121.9428065999964,1121.959216599993,1121.959216599993,1121.959216599993,1122.0423843000026,1122.3927459999977,,,,,,,,down,5.593823799994425,None,space,0.4228319999965606,None,,,,,,,,,,,,,,,P148,001,2025-04-11_08h58.44.825,posner_endo_new1,2024.2.4,59.939928203592224,2025-04-11 08h58.50.543807 +0100,
cube_r.png,0.1,10,catch,49,49,0,down,14.090925500000594,None,None,,,,,,,0,49,49,49,,,,,1122.4087452999956,,,,,,,,,,,,,1122.3929423999944,1122.4087452999956,1122.4087452999956,1122.4087452999956,1136.511912899994,,,,1136.519162800003,1136.5302423999965,1136.5302423999965,1136.5776358000003,1136.578148799992,1136.5940297999914,1136.5940297999914,1136.5940297999914,1136.6773100999999,1139.5917469999986,,,,1138.6920191999961,1139.6078704999964,1139.6078704999964,1139.6078704999964,down,14.090925500000594,None,None,,,,,,,,,,,,,,,,,P148,001,2025-04-11_08h58.44.825,posner_endo_new1,2024.2.4,59.939928203592224,2025-04-11 08h58.50.543807 +0100,
cube_l.png,0.1,-0.31,valid,50,50,0,down,9.93235220000497,None,space,0.38010990001203027,None,,,,,0,50,50,50,,,,,1139.6078704999964,,,,,,,,,,,,,1139.5920045999956,1139.6078704999964,1139.6078704999964,1139.6078704999964,1149.548803400001,,,,1149.5568215999956,1149.5670075999951,1149.5670075999951,1149.6144435000024,1149.6147027999978,1149.6308236999903,1149.6308236999903,1149.6308236999903,1149.7141177000012,1150.0149122000003,,,,,,,,down,9.93235220000497,None,space,0.38010990001203027,None,,,,,,,,,,,,,,,P148,001,2025-04-11_08h58.44.825,posner_endo_new1,2024.2.4,59.939928203592224,2025-04-11 08h58.50.543807 +0100,
cube_l.png,0.1,-0.31,valid,51,51,0,down,14.686589699995238,None,space,0.36574779999500606,None,,,,,0,51,51,51,,,,,1150.0303643999941,,,,,,,,,,,,,1150.015102099991,1150.0303643999941,1150.0303643999941,1150.0303643999941,1164.732875200003,,,,1164.7397790999967,1164.751380799993,1164.751380799993,1164.7987580999907,1164.7992847999994,1164.815199699995,1164.815199699995,1164.815199699995,1164.8984234999953,1165.1837787999975,,,,,,,,down,14.686589699995238,None,space,0.36574779999500606,None,,,,,,,,,,,,,,,P148,001,2025-04-11_08h58.44.825,posner_endo_new1,2024.2.4,59.939928203592224,2025-04-11 08h58.50.543807 +0100,
cube_r.png,0.1,-0.31,invalid,52,52,0,down,8.54111869999906,None,space,0.41520250000758097,None,,,,,0,52,52,52,,,,,1165.1981235999992,,,,,,,,,,,,,1165.1842250999907,1165.1981235999992,1165.1981235999992,1165.1981235999992,1173.7409673999937,,,,1173.7524993999978,1173.7628819999954,1173.7628819999954,1173.8062157999957,1173.8064808999916,1173.8227306999906,1173.8227306999906,1173.8227306999906,1173.905945999999,1174.2399236999918,,,,,,,,down,8.54111869999906,None,space,0.41520250000758097,None,,,,,,,,,,,,,,,P148,001,2025-04-11_08h58.44.825,posner_endo_new1,2024.2.4,59.939928203592224,2025-04-11 08h58.50.543807 +0100,
cube_l.png,0.1,-0.31,valid,53,53,0,down,12.860502600000473,None,space,0.3549352000118233,None,,,,,0,53,53,53,,,,,1174.2556477999897,,,,,,,,,,,,,1174.240124399992,1174.2556477999897,1174.2556477999897,1174.2556477999897,1187.1266460999905,,,,1187.1339191000006,1187.1454018999939,1187.1454018999939,1187.1926455999928,1187.1930270000012,1187.209057999993,1187.209057999993,1187.209057999993,1187.292316799998,1187.5766290000029,,,,,,,,down,12.860502600000473,None,space,0.3549352000118233,None,,,,,,,,,,,,,,,P148,001,2025-04-11_08h58.44.825,posner_endo_new1,2024.2.4,59.939928203592224,2025-04-11 08h58.50.543807 +0100,
cube_r.png,0.1,10,catch,54,54,0,down,12.867654300003778,None,None,,,,,,,0,54,54,54,,,,,1187.592107599994,,,,,,,,,,,,,1187.576931299991,1187.592107599994,1187.592107599994,1187.592107599994,1200.463661899994,,,,1200.4749118000036,1200.4853325000004,1200.4853325000004,1200.5291021000012,1200.5294598000037,1200.5453646999958,1200.5453646999958,1200.5453646999958,1200.628722399997,1203.543155499996,,,,1202.6432513999898,1203.5591033999954,1203.5591033999954,1203.5591033999954,down,12.867654300003778,None,None,,,,,,,,,,,,,,,,,P148,001,2025-04-11_08h58.44.825,posner_endo_new1,2024.2.4,59.939928203592224,2025-04-11 08h58.50.543807 +0100,
cube_l.png,0.1,0.31,invalid,55,55,0,down,7.5727637999953,None,space,0.4616948000038974,None,,,,,0,55,55,55,,,,,1203.5591033999954,,,,,,,,,,,,,1203.5434262999916,1203.5591033999954,1203.5591033999954,1203.5591033999954,1211.1359536999953,,,,1211.1459630000027,1211.1556524999905,1211.1556524999905,1211.2013488999946,1211.2016012999957,1211.2180085,1211.2180085,1211.2180085,1211.3010721000028,1211.684836799992,,,,,,,,down,7.5727637999953,None,space,0.4616948000038974,None,,,,,,,,,,,,,,,P148,001,2025-04-11_08h58.44.825,posner_endo_new1,2024.2.4,59.939928203592224,2025-04-11 08h58.50.543807 +0100,
cube_l.png,0.1,-0.31,valid,56,56,0,down,10.95114440000907,None,space,0.3889756999997189,None,,,,,0,56,56,56,,,,,1211.7007882999897,,,,,,,,,,,,,1211.6850225999951,1211.7007882999897,1211.7007882999897,1211.7007882999897,1222.6571708999982,,,,1222.6640003999928,1222.6754389999987,1222.6754389999987,1222.72273709999,1222.7229891000025,1222.7392984000035,1222.7392984000035,1222.7392984000035,1222.8226247999992,1223.1399034999922,,,,,,,,down,10.95114440000907,None,space,0.3889756999997189,None,,,,,,,,,,,,,,,P148,001,2025-04-11_08h58.44.825,posner_endo_new1,2024.2.4,59.939928203592224,2025-04-11 08h58.50.543807 +0100,
cube_r.png,0.1,0.31,valid,57,57,0,down,10.671918100008043,None,space,0.4237426999898162,None,,,,,0,57,57,57,,,,,1223.1556185999943,,,,,,,,,,,,,1223.1400889999932,1223.1556185999943,1223.1556185999943,1223.1556185999943,1233.8292086000001,,,,1233.8360649999959,1233.8477024000022,1233.8477024000022,1233.8947700999997,1233.895031699998,1233.9110617999977,1233.9110617999977,1233.9110617999977,1233.9945443999895,1234.3450069999963,,,,,,,,down,10.671918100008043,None,space,0.4237426999898162,None,,,,,,,,,,,,,,,P148,001,2025-04-11_08h58.44.825,posner_endo_new1,2024.2.4,59.939928203592224,2025-04-11 08h58.50.543807 +0100,
cube_r.png,0.1,-0.31,invalid,58,58,0,down,10.09872200000973,None,space,0.4434886999952141,None,,,,,0,58,58,58,,,,,1234.3608114999952,,,,,,,,,,,,,1234.3451976999932,1234.3608114999952,1234.3608114999952,1234.3608114999952,1244.4681603999925,,,,1244.4759533000033,1244.4866923999944,1244.4866923999944,1244.5337807999895,1244.5340179999912,1244.550453799995,1244.550453799995,1244.550453799995,1244.6334362999914,1245.0007693999942,,,,,,,,down,10.09872200000973,None,space,0.4434886999952141,None,,,,,,,,,,,,,,,P148,001,2025-04-11_08h58.44.825,posner_endo_new1,2024.2.4,59.939928203592224,2025-04-11 08h58.50.543807 +0100,
cube_l.png,0.1,0.31,invalid,59,59,0,down,8.546889599994756,None,space,0.4884922000055667,None,,,,,0,59,59,59,,,,,1245.0165350000025,,,,,,,,,,,,,1245.0009419999988,1245.0165350000025,1245.0165350000025,1245.0165350000025,1253.5753211999981,,,,1253.5816332999966,1253.593210799998,1253.593210799998,1253.6412772999902,1253.641526099993,1253.6577644999925,1253.6577644999925,1253.6577644999925,1253.7243920000037,1254.1581585999957,,,,,,,,down,8.546889599994756,None,space,0.4884922000055667,None,,,,,,,,,,,,,,,P148,001,2025-04-11_08h58.44.825,posner_endo_new1,2024.2.4,59.939928203592224,2025-04-11 08h58.50.543807 +0100,
,,,,,,,,,,,,,,,,,,,,,,,,,,,,,,,,,,,,,,,,,,,,,,,,,,,,,,,,,,,,,,,,,,,,,1254.1582743999898,1254.1739573999948,1254.1739573999948,1314.1791758000036,1320.623135899994,space,66.43811519999872,None,,,,,,,P148,001,2025-04-11_08h58.44.825,posner_endo_new1,2024.2.4,59.939928203592224,2025-04-11 08h58.50.543807 +0100,
,,,,,,,,,,,,,,,,,,,,,,,,,,,,,,,,,,1320.6231933999952,1320.6391569999978,1323.7060325999919,1323.619883499996,,,,,,,,,,,,,,,,,,,,,,,,,,,,,,,,,,,,,,,,,,,,,,P148,001,2025-04-11_08h58.44.825,posner_endo_new1,2024.2.4,59.939928203592224,2025-04-11 08h58.50.543807 +0100,
cube_l.png,0.1,10,catch,0,0,0,up,18.00965829999768,None,None,,,,,,,,,,,0,0,0,0,1323.7060325999919,,,,,,,,,,,,,1323.6978732999996,1323.7060325999919,1323.7060325999919,1323.7060325999919,1341.7185899999895,,,,1341.7246190000005,1341.736362800002,1341.736362800002,1341.7844502999942,1341.7846945999918,1341.8008421999984,1341.8008421999984,1341.8008421999984,1341.8841080999991,1344.798347399992,,,,1343.898791300002,1344.8144666000007,1344.8144666000007,1344.8144666000007,,,,,,,,,,,,,,,up,18.00965829999768,None,None,,,P148,001,2025-04-11_08h58.44.825,posner_endo_new1,2024.2.4,59.939928203592224,2025-04-11 08h58.50.543807 +0100,
cube_l.png,0.1,10,catch,1,1,0,up,11.717297700000927,None,None,,,,,,,,,,,0,1,1,1,1344.8144666000007,,,,,,,,,,,,,1344.7985222999996,1344.8144666000007,1344.8144666000007,1344.8144666000007,1356.5366700000013,,,,1356.542697500001,1356.5543382999895,1356.5543382999895,1356.6025186999905,1356.6027613999904,1356.6190352999984,1356.6190352999984,1356.6190352999984,1356.702399300004,1359.6165280999994,,,,1358.7168287999957,1359.6327517000027,1359.6327517000027,1359.6327517000027,,,,,,,,,,,,,,,up,11.717297700000927,None,None,,,P148,001,2025-04-11_08h58.44.825,posner_endo_new1,2024.2.4,59.939928203592224,2025-04-11 08h58.50.543807 +0100,
cube_l.png,0.1,0.31,invalid,2,2,0,up,21.083511799995904,None,space,0.5440338999906089,None,,,,,,,,,0,2,2,2,1359.6327517000027,,,,,,,,,,,,,1359.6167041000008,1359.6327517000027,1359.6327517000027,1359.6327517000027,1380.7288351000025,,,,1380.7382790999982,1380.7486084999982,1380.7486084999982,1380.794716000004,1380.7950339999952,1380.8109888000035,1380.8109888000035,1380.8109888000035,1380.8941211999918,1381.361506000001,,,,,,,,,,,,,,,,,,,,,,up,21.083511799995904,None,space,0.5440338999906089,None,P148,001,2025-04-11_08h58.44.825,posner_endo_new1,2024.2.4,59.939928203592224,2025-04-11 08h58.50.543807 +0100,
cube_l.png,0.1,0.31,invalid,3,3,0,up,10.267143399993074,None,space,0.461974600009853,None,,,,,,,,,0,3,3,3,1381.3771345999994,,,,,,,,,,,,,1381.3617660000018,1381.3771345999994,1381.3771345999994,1381.3771345999994,1391.6509392000007,,,,1391.6604172999942,1391.6706833999924,1391.6706833999924,1391.716577500003,1391.7169014999963,1391.7329981999937,1391.7329981999937,1391.7329981999937,1391.8161585999915,1392.200546699998,,,,,,,,,,,,,,,,,,,,,,up,10.267143399993074,None,space,0.461974600009853,None,P148,001,2025-04-11_08h58.44.825,posner_endo_new1,2024.2.4,59.939928203592224,2025-04-11 08h58.50.543807 +0100,
cube_l.png,0.1,-0.31,valid,4,4,0,up,12.203697699995246,None,space,0.8309489999955986,None,,,,,,,,,0,4,4,4,1392.215924899996,,,,,,,,,,,,,1392.2008072000026,1392.215924899996,1392.215924899996,1392.215924899996,1404.4214322999906,,,,1404.4309754999995,1404.4412209000002,1404.4412209000002,1404.486956199995,1404.4872807999927,1404.503265499996,1404.503265499996,1404.503265499996,1404.586768299996,1405.3371293999953,,,,,,,,,,,,,,,,,,,,,,up,12.203697699995246,None,space,0.8309489999955986,None,P148,001,2025-04-11_08h58.44.825,posner_endo_new1,2024.2.4,59.939928203592224,2025-04-11 08h58.50.543807 +0100,
cube_r.png,0.1,-0.31,invalid,5,5,0,up,10.539220599996042,None,space,0.33439310001267586,None,,,,,,,,,0,5,5,5,1405.3525798999908,,,,,,,,,,,,,1405.337392699992,1405.3525798999908,1405.3525798999908,1405.3525798999908,1415.8931394999963,,,,1415.9026575000025,1415.912883500001,1415.912883500001,1415.9584943999944,1415.9588210999937,1415.9751300999924,1415.9751300999924,1415.9751300999924,1416.058246799992,1416.3256731000001,,,,,,,,,,,,,,,,,,,,,,up,10.539220599996042,None,space,0.33439310001267586,None,P148,001,2025-04-11_08h58.44.825,posner_endo_new1,2024.2.4,59.939928203592224,2025-04-11 08h58.50.543807 +0100,
cube_r.png,0.1,0.31,valid,6,6,0,up,7.8947945999971125,None,space,0.44460840000829194,None,,,,,,,,,0,6,6,6,1416.341252099999,,,,,,,,,,,,,1416.3259360999946,1416.341252099999,1416.341252099999,1416.341252099999,1424.2508975999954,,,,1424.260381400003,1424.2706191000034,1424.2706191000034,1424.316653899994,1424.3169828999962,1424.3333149999962,1424.3333149999962,1424.3333149999962,1424.4163568999938,1424.7837257999927,,,,,,,,,,,,,,,,,,,,,,up,7.8947945999971125,None,space,0.44460840000829194,None,P148,001,2025-04-11_08h58.44.825,posner_endo_new1,2024.2.4,59.939928203592224,2025-04-11 08h58.50.543807 +0100,
cube_r.png,0.1,-0.31,invalid,7,7,0,up,7.836172099996475,None,space,0.39987439999822527,None,,,,,,,,,0,7,7,7,1424.799389199994,,,,,,,,,,,,,1424.7839909000031,1424.799389199994,1424.799389199994,1424.799389199994,1432.6425571,,,,1432.651999900001,1432.6622048999998,1432.6622048999998,1432.708033899995,1432.708355499999,1432.7243941999914,1432.7243941999914,1432.7243941999914,1432.8078007000004,1433.1253869999928,,,,,,,,,,,,,,,,,,,,,,up,7.836172099996475,None,space,0.39987439999822527,None,P148,001,2025-04-11_08h58.44.825,posner_endo_new1,2024.2.4,59.939928203592224,2025-04-11 08h58.50.543807 +0100,
cube_l.png,0.1,-0.31,valid,8,8,0,up,6.126651099999435,None,space,0.4201415999996243,None,,,,,,,,,0,8,8,8,1433.1408911999897,,,,,,,,,,,,,1433.125647199995,1433.1408911999897,1433.1408911999897,1433.1408911999897,1439.2690834999958,,,,1439.2786008999974,1439.2888335000025,1439.2888335000025,1439.3344216999976,1439.334743799991,1439.3511372999928,1439.3511372999928,1439.3511372999928,1439.4342503999942,1439.7852296999918,,,,,,,,,,,,,,,,,,,,,,up,6.126651099999435,None,space,0.4201415999996243,None,P148,001,2025-04-11_08h58.44.825,posner_endo_new1,2024.2.4,59.939928203592224,2025-04-11 08h58.50.543807 +0100,
cube_r.png,0.1,-0.31,invalid,9,9,0,up,10.755272199996398,None,space,0.3815634000056889,None,,,,,,,,,0,9,9,9,1439.8006303000002,,,,,,,,,,,,,1439.7854919999954,1439.8006303000002,1439.8006303000002,1439.8006303000002,1450.557125499996,,,,1450.563155099997,1450.5748783000017,1450.5748783000017,1450.622976899991,1450.6232148999989,1450.639553000001,1450.639553000001,1450.639553000001,1450.7228561999946,1451.0232563000027,,,,,,,,,,,,,,,,,,,,,,up,10.755272199996398,None,space,0.3815634000056889,None,P148,001,2025-04-11_08h58.44.825,posner_endo_new1,2024.2.4,59.939928203592224,2025-04-11 08h58.50.543807 +0100,
cube_l.png,0.1,0.31,invalid,10,10,0,up,10.29290289999335,None,space,0.309828400000697,None,,,,,,,,,0,10,10,10,1451.0391467000009,,,,,,,,,,,,,1451.0234395000007,1451.0391467000009,1451.0391467000009,1451.0391467000009,1461.345884800001,,,,1461.3524883999926,1461.3639623999916,1461.3639623999916,1461.4120493999944,1461.4122886999976,1461.4285713999998,1461.4285713999998,1461.4285713999998,1461.4950282999926,1461.7454488999938,,,,,,,,,,,,,,,,,,,,,,up,10.29290289999335,None,space,0.309828400000697,None,P148,001,2025-04-11_08h58.44.825,posner_endo_new1,2024.2.4,59.939928203592224,2025-04-11 08h58.50.543807 +0100,
cube_r.png,0.1,-0.31,invalid,11,11,0,up,7.874530600005528,None,space,0.3927648999961093,None,,,,,,,,,0,11,11,11,1461.7614399000013,,,,,,,,,,,,,1461.7456359999924,1461.7614399000013,1461.7614399000013,1461.7614399000013,1469.6377240000002,,,,1469.6439715000015,1469.6555582,1469.6555582,1469.703509999992,1469.7037498999998,1469.7199504000018,1469.7199504000018,1469.7199504000018,1469.8031906999968,1470.120571499996,,,,,,,,,,,,,,,,,,,,,,up,7.874530600005528,None,space,0.3927648999961093,None,P148,001,2025-04-11_08h58.44.825,posner_endo_new1,2024.2.4,59.939928203592224,2025-04-11 08h58.50.543807 +0100,
cube_r.png,0.1,0.31,valid,12,12,0,up,11.107618099995307,None,space,0.29313610000826884,None,,,,,,,,,0,12,12,12,1470.1362859999936,,,,,,,,,,,,,1470.1207508999942,1470.1362859999936,1470.1362859999936,1470.1362859999936,1481.2593312999961,,,,1481.2688324999908,1481.2790154999966,1481.2790154999966,1481.3250401999976,1481.3253575999988,1481.3415415999916,1481.3415415999916,1481.3415415999916,1481.4247644999996,1481.642005799993,,,,,,,,,,,,,,,,,,,,,,up,11.107618099995307,None,space,0.29313610000826884,None,P148,001,2025-04-11_08h58.44.825,posner_endo_new1,2024.2.4,59.939928203592224,2025-04-11 08h58.50.543807 +0100,
cube_l.png,0.1,10,catch,13,13,0,up,5.458063800004311,None,None,,,,,,,,,,,0,13,13,13,1481.6579229999916,,,,,,,,,,,,,1481.6422654999915,1481.6579229999916,1481.6579229999916,1481.6579229999916,1487.1199318,,,,1487.1293218999926,1487.1395593999914,1487.1395593999914,1487.185643799996,1487.1859800999955,1487.2022579999903,1487.2022579999903,1487.2022579999903,1487.28533839999,1490.199689400004,,,,1489.3000140999939,1490.2156530999928,1490.2156530999928,1490.2156530999928,,,,,,,,,,,,,,,up,5.458063800004311,None,None,,,P148,001,2025-04-11_08h58.44.825,posner_endo_new1,2024.2.4,59.939928203592224,2025-04-11 08h58.50.543807 +0100,
cube_r.png,0.1,-0.31,invalid,14,14,0,up,6.611622299998999,None,space,0.37066660000709817,None,,,,,,,,,0,14,14,14,1490.2156530999928,,,,,,,,,,,,,1490.1999477999925,1490.2156530999928,1490.2156530999928,1490.2156530999928,1496.8432640999963,,,,1496.8526770000026,1496.8629436999909,1496.8629436999909,1496.9089917999954,1496.909320199993,1496.9256652999902,1496.9256652999902,1496.9256652999902,1497.0088110999932,1497.3096812000003,,,,,,,,,,,,,,,,,,,,,,up,6.611622299998999,None,space,0.37066660000709817,None,P148,001,2025-04-11_08h58.44.825,posner_endo_new1,2024.2.4,59.939928203592224,2025-04-11 08h58.50.543807 +0100,
cube_l.png,0.1,-0.31,valid,15,15,0,up,10.838905299999169,None,space,0.3692529999971157,None,,,,,,,,,0,15,15,15,1497.3249594999943,,,,,,,,,,,,,1497.3099427999987,1497.3249594999943,1497.3249594999943,1497.3249594999943,1508.1654201999918,,,,1508.1747736999969,1508.1845269999903,1508.1845269999903,1508.2307250000013,1508.2309660000028,1508.2472904000024,1508.2472904000024,1508.2472904000024,1508.3305846000003,1508.631186300001,,,,,,,,,,,,,,,,,,,,,,up,10.838905299999169,None,space,0.3692529999971157,None,P148,001,2025-04-11_08h58.44.825,posner_endo_new1,2024.2.4,59.939928203592224,2025-04-11 08h58.50.543807 +0100,
cube_r.png,0.1,10,catch,16,16,0,up,8.628707800002303,None,None,,,,,,,,,,,0,16,16,16,1508.646942499996,,,,,,,,,,,,,1508.6313659000007,1508.646942499996,1508.646942499996,1508.646942499996,1517.288629799994,,,,1517.2949566000025,1517.3065956999926,1517.3065956999926,1517.3547851999901,1517.35502789999,1517.3715172999946,1517.3715172999946,1517.3715172999946,1517.437720499991,1520.368591499995,,,,1519.4524376999907,1520.3848511999968,1520.3848511999968,1520.3848511999968,,,,,,,,,,,,,,,up,8.628707800002303,None,None,,,P148,001,2025-04-11_08h58.44.825,posner_endo_new1,2024.2.4,59.939928203592224,2025-04-11 08h58.50.543807 +0100,
cube_r.png,0.1,10,catch,17,17,0,up,11.37076469999738,None,None,,,,,,,,,,,0,17,17,17,1520.3848511999968,,,,,,,,,,,,,1520.368762099999,1520.3848511999968,1520.3848511999968,1520.3848511999968,1531.7573700999928,,,,1531.7636895999894,1531.775366899994,1531.775366899994,1531.8229640999925,1531.8234171999939,1531.8394475999958,1531.8394475999958,1531.8394475999958,1531.9226531000022,1534.8373187999969,,,,1533.9372947999946,1534.8530444999924,1534.8530444999924,1534.8530444999924,,,,,,,,,,,,,,,up,11.37076469999738,None,None,,,P148,001,2025-04-11_08h58.44.825,posner_endo_new1,2024.2.4,59.939928203592224,2025-04-11 08h58.50.543807 +0100,
cube_l.png,0.1,0.31,invalid,18,18,0,up,11.630837000004249,None,space,0.4248809999990044,None,,,,,,,,,0,18,18,18,1534.8530444999924,,,,,,,,,,,,,1534.83767909999,1534.8530444999924,1534.8530444999924,1534.8530444999924,1546.4925199999998,,,,1546.5019624999986,1546.5122743999964,1546.5122743999964,1546.558453199992,1546.5587812000012,1546.574770799998,1546.574770799998,1546.574770799998,1546.6577974999964,1547.0086049999954,,,,,,,,,,,,,,,,,,,,,,up,11.630837000004249,None,space,0.4248809999990044,None,P148,001,2025-04-11_08h58.44.825,posner_endo_new1,2024.2.4,59.939928203592224,2025-04-11 08h58.50.543807 +0100,
cube_l.png,0.1,10,catch,19,19,0,up,12.02712139999494,None,None,,,,,,,,,,,0,19,19,19,1547.024290699992,,,,,,,,,,,,,1547.008865099997,1547.024290699992,1547.024290699992,1547.024290699992,1559.0630395999906,,,,1559.0725240000029,1559.082734800002,1559.082734800002,1559.1287792999938,1559.1291008999979,1559.145082899995,1559.145082899995,1559.145082899995,1559.2283116999897,1562.1428113000002,,,,1561.2428780999908,1562.1589791000006,1562.1589791000006,1562.1589791000006,,,,,,,,,,,,,,,up,12.02712139999494,None,None,,,P148,001,2025-04-11_08h58.44.825,posner_endo_new1,2024.2.4,59.939928203592224,2025-04-11 08h58.50.543807 +0100,
cube_l.png,0.1,0.31,invalid,20,20,0,up,6.0850299000012456,None,space,0.33189169999968726,None,,,,,,,,,0,20,20,20,1562.1589791000006,,,,,,,,,,,,,1562.1430548999924,1562.1589791000006,1562.1589791000006,1562.1589791000006,1568.253601999997,,,,1568.2630799000035,1568.2733316999947,1568.2733316999947,1568.319413099991,1568.3197408999986,1568.3358713999914,1568.3358713999914,1568.3358713999914,1568.4191533999983,1568.6700225999957,,,,,,,,,,,,,,,,,,,,,,up,6.0850299000012456,None,space,0.33189169999968726,None,P148,001,2025-04-11_08h58.44.825,posner_endo_new1,2024.2.4,59.939928203592224,2025-04-11 08h58.50.543807 +0100,
cube_l.png,0.1,-0.31,valid,21,21,0,up,11.038046600006055,None,space,0.33003860000462737,None,,,,,,,,,0,21,21,21,1568.6854812999954,,,,,,,,,,,,,1568.6702843999956,1568.6854812999954,1568.6854812999954,1568.6854812999954,1579.7254815999913,,,,1579.7348717999994,1579.745074099992,1579.745074099992,1579.79087479999,1579.7911966999964,1579.807237999994,1579.807237999994,1579.807237999994,1579.8907050999987,1580.1414989999903,,,,,,,,,,,,,,,,,,,,,,up,11.038046600006055,None,space,0.33003860000462737,None,P148,001,2025-04-11_08h58.44.825,posner_endo_new1,2024.2.4,59.939928203592224,2025-04-11 08h58.50.543807 +0100,
cube_r.png,0.1,0.31,valid,22,22,0,up,14.767044899999746,None,space,0.3318926000065403,None,,,,,,,,,0,22,22,22,1580.1569877000002,,,,,,,,,,,,,1580.1417799999908,1580.1569877000002,1580.1569877000002,1580.1569877000002,1594.9263673999958,,,,1594.9351706000016,1594.9450198999984,1594.9450198999984,1594.9919246999925,1594.9921746999898,1595.0085328999994,1595.0085328999994,1595.0085328999994,1595.09173439999,1595.3423419000028,,,,,,,,,,,,,,,,,,,,,,up,14.767044899999746,None,space,0.3318926000065403,None,P148,001,2025-04-11_08h58.44.825,posner_endo_new1,2024.2.4,59.939928203592224,2025-04-11 08h58.50.543807 +0100,
cube_r.png,0.1,-0.31,invalid,23,23,0,up,9.829292900001747,None,space,0.4110604999877978,None,,,,,,,,,0,23,23,23,1595.3581962000026,,,,,,,,,,,,,1595.3425276999915,1595.3581962000026,1595.3581962000026,1595.3581962000026,1605.198950799997,,,,1605.2052935999964,1605.216944300002,1605.216944300002,1605.2647108999954,1605.2649521999992,1605.2812596000003,1605.2812596000003,1605.2812596000003,1605.3645423999988,1605.6984125000017,,,,,,,,,,,,,,,,,,,,,,up,9.829292900001747,None,space,0.4110604999877978,None,P148,001,2025-04-11_08h58.44.825,posner_endo_new1,2024.2.4,59.939928203592224,2025-04-11 08h58.50.543807 +0100,
cube_r.png,0.1,0.31,valid,24,24,0,up,12.529621699999552,None,space,0.33248149999417365,None,,,,,,,,,0,24,24,24,1605.7143163,,,,,,,,,,,,,1605.698594100002,1605.7143163,1605.7143163,1605.7143163,1618.2519192999898,,,,1618.2582738999918,1618.2698993999948,1618.2698993999948,1618.3180142999918,1618.318266000002,1618.3346049999964,1618.3346049999964,1618.3346049999964,1618.4012789999979,1618.668802500004,,,,,,,,,,,,,,,,,,,,,,up,12.529621699999552,None,space,0.33248149999417365,None,P148,001,2025-04-11_08h58.44.825,posner_endo_new1,2024.2.4,59.939928203592224,2025-04-11 08h58.50.543807 +0100,
cube_r.png,0.1,-0.31,invalid,25,25,0,up,10.687450099998387,None,space,0.3545527999958722,None,,,,,,,,,0,25,25,25,1618.684226700003,,,,,,,,,,,,,1618.6689905999956,1618.684226700003,1618.684226700003,1618.684226700003,1629.3742532999895,,,,1629.3805915999983,1629.3920319000026,1629.3920319000026,1629.4401574999938,1629.440405100002,1629.4565092999983,1629.4565092999983,1629.4565092999983,1629.5398042000015,1629.8236979999929,,,,,,,,,,,,,,,,,,,,,,up,10.687450099998387,None,space,0.3545527999958722,None,P148,001,2025-04-11_08h58.44.825,posner_endo_new1,2024.2.4,59.939928203592224,2025-04-11 08h58.50.543807 +0100,
cube_l.png,0.1,-0.31,valid,26,26,0,up,9.443834199992125,None,space,0.3237437000061618,None,,,,,,,,,0,26,26,26,1629.839438199997,,,,,,,,,,,,,1629.8238786000002,1629.839438199997,1629.839438199997,1629.839438199997,1639.297573399992,,,,1639.305461099997,1639.3159538999898,1639.3159538999898,1639.3632241000014,1639.3634642999968,1639.3798154999968,1639.3798154999968,1639.3798154999968,1639.4629141999903,1639.7135472999944,,,,,,,,,,,,,,,,,,,,,,up,9.443834199992125,None,space,0.3237437000061618,None,P148,001,2025-04-11_08h58.44.825,posner_endo_new1,2024.2.4,59.939928203592224,2025-04-11 08h58.50.543807 +0100,
cube_r.png,0.1,0.31,valid,27,27,0,up,10.786241099995095,None,space,0.3999125999980606,None,,,,,,,,,0,27,27,27,1639.729317899997,,,,,,,,,,,,,1639.713731099997,1639.729317899997,1639.729317899997,1639.729317899997,1650.520120999994,,,,1650.5364992999966,1650.5475929999957,1650.5475929999957,1650.584915200001,1650.5854426000005,1650.6014268,1650.6014268,1650.6014268,1650.6846300999896,1651.0032499999943,,,,,,,,,,,,,,,,,,,,,,up,10.786241099995095,None,space,0.3999125999980606,None,P148,001,2025-04-11_08h58.44.825,posner_endo_new1,2024.2.4,59.939928203592224,2025-04-11 08h58.50.543807 +0100,
cube_r.png,0.1,10,catch,28,28,0,up,9.297743399991305,None,None,,,,,,,,,,,0,28,28,28,1651.0176462999952,,,,,,,,,,,,,1651.0036957999982,1651.0176462999952,1651.0176462999952,1651.0176462999952,1660.3258609999903,,,,1660.332199299999,1660.3443692,1660.3443692,1660.3916541999934,1660.3921715999895,1660.408067299999,1660.408067299999,1660.408067299999,1660.4912887999963,1663.405574999997,,,,1662.505565200001,1663.4216564999952,1663.4216564999952,1663.4216564999952,,,,,,,,,,,,,,,up,9.297743399991305,None,None,,,P148,001,2025-04-11_08h58.44.825,posner_endo_new1,2024.2.4,59.939928203592224,2025-04-11 08h58.50.543807 +0100,
cube_r.png,0.1,0.31,valid,29,29,0,up,5.254125799998292,None,space,0.4083007000008365,None,,,,,,,,,0,29,29,29,1663.4216564999952,,,,,,,,,,,,,1663.4057354999968,1663.4216564999952,1663.4216564999952,1663.4216564999952,1668.6856904000015,,,,1668.7060165000003,1668.7165554999956,1668.7165554999956,1668.7495600999973,1668.7500142999925,1668.7660086999967,1668.7660086999967,1668.7660086999967,1668.8492607999942,1669.183846400003,,,,,,,,,,,,,,,,,,,,,,up,5.254125799998292,None,space,0.4083007000008365,None,P148,001,2025-04-11_08h58.44.825,posner_endo_new1,2024.2.4,59.939928203592224,2025-04-11 08h58.50.543807 +0100,
cube_r.png,0.1,0.31,valid,30,30,0,up,10.788713700007065,None,space,0.33601130000897683,None,,,,,,,,,0,30,30,30,1669.1988913999958,,,,,,,,,,,,,1669.1842305000027,1669.1988913999958,1669.1988913999958,1669.1988913999958,1679.989340500004,,,,1679.9979541999928,1680.0082107999915,1680.0082107999915,1680.0548640999914,1680.0551781999966,1680.0714853999962,1680.0714853999962,1680.0714853999962,1680.1546692999982,1680.4220848999976,,,,,,,,,,,,,,,,,,,,,,up,10.788713700007065,None,space,0.33601130000897683,None,P148,001,2025-04-11_08h58.44.825,posner_endo_new1,2024.2.4,59.939928203592224,2025-04-11 08h58.50.543807 +0100,
cube_l.png,0.1,-0.31,valid,31,31,0,up,7.222217299990007,None,space,0.31492389999039005,None,,,,,,,,,0,31,31,31,1680.4376043999946,,,,,,,,,,,,,1680.4223261000006,1680.4376043999946,1680.4376043999946,1680.4376043999946,1687.6646592999896,,,,1687.6732737999992,1687.6834533999936,1687.6834533999936,1687.7303910999908,1687.7307007999916,1687.7467673999927,1687.7467673999927,1687.7467673999927,1687.8300307000027,1688.064353499998,,,,,,,,,,,,,,,,,,,,,,up,7.222217299990007,None,space,0.31492389999039005,None,P148,001,2025-04-11_08h58.44.825,posner_endo_new1,2024.2.4,59.939928203592224,2025-04-11 08h58.50.543807 +0100,
cube_r.png,0.1,0.31,valid,32,32,0,up,13.147512099996675,None,space,0.24400669999886304,None,,,,,,,,,0,32,32,32,1688.0799323999963,,,,,,,,,,,,,1688.0646216000023,1688.0799323999963,1688.0799323999963,1688.0799323999963,1701.2340485000022,,,,1701.2426592999982,1701.2527855999942,1701.2527855999942,1701.2998250999954,1701.3001261000027,1701.3163870999997,1701.3163870999997,1701.3163870999997,1701.3995112999983,1701.567068599994,,,,,,,,,,,,,,,,,,,,,,up,13.147512099996675,None,space,0.24400669999886304,None,P148,001,2025-04-11_08h58.44.825,posner_endo_new1,2024.2.4,59.939928203592224,2025-04-11 08h58.50.543807 +0100,
cube_r.png,0.1,-0.31,invalid,33,33,0,up,9.653076200003852,None,space,0.31882640000549145,None,,,,,,,,,0,33,33,33,1701.5826997999975,,,,,,,,,,,,,1701.5673141000007,1701.5826997999975,1701.5826997999975,1701.5826997999975,1711.2407735000015,,,,1711.249373300001,1711.2597089999908,1711.2597089999908,1711.3063293000014,1711.306899999996,1711.3227303000021,1711.3227303000021,1711.3227303000021,1711.4059970999951,1711.6577382999967,,,,,,,,,,,,,,,,,,,,,,up,9.653076200003852,None,space,0.31882640000549145,None,P148,001,2025-04-11_08h58.44.825,posner_endo_new1,2024.2.4,59.939928203592224,2025-04-11 08h58.50.543807 +0100,
cube_r.png,0.1,10,catch,34,34,0,up,7.667230200007907,None,None,,,,,,,,,,,0,34,34,34,1711.672355399991,,,,,,,,,,,,,1711.6582187000022,1711.672355399991,1711.672355399991,1711.672355399991,1719.3498281999928,,,,1719.3678874000034,1719.3796077000006,1719.3796077000006,1719.4147108000034,1719.4150110999908,1719.43115579999,1719.43115579999,1719.43115579999,1719.514224899991,1722.4288475999929,,,,1721.5288616999896,1722.4446763000014,1722.4446763000014,1722.4446763000014,,,,,,,,,,,,,,,up,7.667230200007907,None,None,,,P148,001,2025-04-11_08h58.44.825,posner_endo_new1,2024.2.4,59.939928203592224,2025-04-11 08h58.50.543807 +0100,
cube_r.png,0.1,0.31,valid,35,35,0,up,11.239787300000899,None,space,0.33804950000194367,None,,,,,,,,,0,35,35,35,1722.4446763000014,,,,,,,,,,,,,1722.4290730999928,1722.4446763000014,1722.4446763000014,1722.4446763000014,1733.701121399994,,,,1733.7119459999958,1733.7219895000017,1733.7219895000017,1733.7669291999919,1733.767276300001,1733.7831656999915,1733.7831656999915,1733.7831656999915,1733.8663821999944,1734.1339499000023,,,,,,,,,,,,,,,,,,,,,,up,11.239787300000899,None,space,0.33804950000194367,None,P148,001,2025-04-11_08h58.44.825,posner_endo_new1,2024.2.4,59.939928203592224,2025-04-11 08h58.50.543807 +0100,
cube_r.png,0.1,-0.31,invalid,36,36,0,up,10.206530600000406,None,space,0.33383340000000317,None,,,,,,,,,0,36,36,36,1734.1492302999977,,,,,,,,,,,,,1734.134238899991,1734.1492302999977,1734.1492302999977,1734.1492302999977,1744.3569679999928,,,,1744.3660391000012,1744.376117199994,1744.376117199994,1744.4225129999977,1744.4227638000011,1744.438961199994,1744.438961199994,1744.438961199994,1744.522208800001,1744.7895217999903,,,,,,,,,,,,,,,,,,,,,,up,10.206530600000406,None,space,0.33383340000000317,None,P148,001,2025-04-11_08h58.44.825,posner_endo_new1,2024.2.4,59.939928203592224,2025-04-11 08h58.50.543807 +0100,
cube_l.png,0.1,0.31,invalid,37,37,0,up,8.63910470000701,None,space,0.33129770000232384,None,,,,,,,,,0,37,37,37,1744.8052147999988,,,,,,,,,,,,,1744.7897163000016,1744.8052147999988,1744.8052147999988,1744.8052147999988,1753.4471686999896,,,,1753.4540131999966,1753.4656007000012,1753.4656007000012,1753.5130610999913,1753.51331699999,1753.5294980999897,1753.5294980999897,1753.5294980999897,1753.6128719999979,1753.8633917999978,,,,,,,,,,,,,,,,,,,,,,up,8.63910470000701,None,space,0.33129770000232384,None,P148,001,2025-04-11_08h58.44.825,posner_endo_new1,2024.2.4,59.939928203592224,2025-04-11 08h58.50.543807 +0100,
cube_l.png,0.1,0.31,invalid,38,38,0,up,10.956465099996421,None,space,0.37332790000073146,None,,,,,,,,,0,38,38,38,1753.8791993999912,,,,,,,,,,,,,1753.8635872000013,1753.8791993999912,1753.8791993999912,1753.8791993999912,1764.852244900001,,,,1764.8591081999912,1764.870864800003,1764.870864800003,1764.9180384999927,1764.9185728000011,1764.9344474999962,1764.9344474999962,1764.9344474999962,1765.0176875999896,1765.3194908000005,,,,,,,,,,,,,,,,,,,,,,up,10.956465099996421,None,space,0.37332790000073146,None,P148,001,2025-04-11_08h58.44.825,posner_endo_new1,2024.2.4,59.939928203592224,2025-04-11 08h58.50.543807 +0100,
cube_r.png,0.1,0.31,valid,39,39,0,up,8.70181749999756,None,space,0.3172176999942167,None,,,,,,,,,0,39,39,39,1765.3339848000032,,,,,,,,,,,,,1765.319949800003,1765.3339848000032,1765.3339848000032,1765.3339848000032,1774.043183200003,,,,1774.0543533000018,1774.0648125000007,1774.0648125000007,1774.1086544999998,1774.1089223000017,1774.1251830999972,1774.1251830999972,1774.1251830999972,1774.2082990999916,1774.4591126000014,,,,,,,,,,,,,,,,,,,,,,up,8.70181749999756,None,space,0.3172176999942167,None,P148,001,2025-04-11_08h58.44.825,posner_endo_new1,2024.2.4,59.939928203592224,2025-04-11 08h58.50.543807 +0100,
cube_l.png,0.1,0.31,invalid,40,40,0,up,12.449207700003171,None,space,0.28593650000402704,None,,,,,,,,,0,40,40,40,1774.4746390999935,,,,,,,,,,,,,1774.4593190000014,1774.4746390999935,1774.4746390999935,1774.4746390999935,1786.9296863999916,,,,1786.9369558999897,1786.9598907000036,1786.9598907000036,1786.9958929999993,1786.9965826999978,1787.0122095999977,1787.0122095999977,1787.0122095999977,1787.078811600004,1787.3143361999973,,,,,,,,,,,,,,,,,,,,,,up,12.449207700003171,None,space,0.28593650000402704,None,P148,001,2025-04-11_08h58.44.825,posner_endo_new1,2024.2.4,59.939928203592224,2025-04-11 08h58.50.543807 +0100,
cube_l.png,0.1,10,catch,41,41,0,up,10.675085399998352,None,None,,,,,,,,,,,0,41,41,41,1787.3285227000015,,,,,,,,,,,,,1787.3149290000001,1787.3285227000015,1787.3285227000015,1787.3285227000015,1798.0200770999945,,,,1798.038704999999,1798.0488630000036,1798.0488630000036,1798.0838614999957,1798.084315,1798.1003283000027,1798.1003283000027,1798.1003283000027,1798.1835352999915,1801.098400399991,,,,1800.1984198999999,1801.1140625999979,1801.1140625999979,1801.1140625999979,,,,,,,,,,,,,,,up,10.675085399998352,None,None,,,P148,001,2025-04-11_08h58.44.825,posner_endo_new1,2024.2.4,59.939928203592224,2025-04-11 08h58.50.543807 +0100,
cube_l.png,0.1,-0.31,valid,42,42,0,up,6.665970500005642,None,space,0.4267799999943236,None,,,,,,,,,0,42,42,42,1801.1140625999979,,,,,,,,,,,,,1801.0986479999992,1801.1140625999979,1801.1140625999979,1801.1140625999979,1807.791895699993,,,,1807.8015238999942,1807.8117010999995,1807.8117010999995,1807.857493100004,1807.8578128999943,1807.874071600003,1807.874071600003,1807.874071600003,1807.9573050999898,1808.308017000003,,,,,,,,,,,,,,,,,,,,,,up,6.665970500005642,None,space,0.4267799999943236,None,P148,001,2025-04-11_08h58.44.825,posner_endo_new1,2024.2.4,59.939928203592224,2025-04-11 08h58.50.543807 +0100,
cube_l.png,0.1,10,catch,43,43,0,up,9.991674100005184,None,None,,,,,,,,,,,0,43,43,43,1808.323593699999,,,,,,,,,,,,,1808.3082786000014,1808.323593699999,1808.323593699999,1808.323593699999,1818.3310108000005,,,,1818.3404551999993,1818.3507841999963,1818.3507841999963,1818.3966903999972,1818.3970104000036,1818.4132221999898,1818.4132221999898,1818.4132221999898,1818.4963246999978,1821.4107490000024,,,,1820.5108619999955,1821.4265860000014,1821.4265860000014,1821.4265860000014,,,,,,,,,,,,,,,up,9.991674100005184,None,None,,,P148,001,2025-04-11_08h58.44.825,posner_endo_new1,2024.2.4,59.939928203592224,2025-04-11 08h58.50.543807 +0100,
cube_l.png,0.1,0.31,invalid,44,44,0,up,8.496867199995904,None,space,0.3902125999884447,None,,,,,,,,,0,44,44,44,1821.4265860000014,,,,,,,,,,,,,1821.4109930999984,1821.4265860000014,1821.4265860000014,1821.4265860000014,1829.9359238999896,,,,1829.9454673,1829.9557598999963,1829.9557598999963,1830.0015814999933,1830.0019020000036,1830.0180175999994,1830.0180175999994,1830.0180175999994,1830.1011001000006,1830.4184946000023,,,,,,,,,,,,,,,,,,,,,,up,8.496867199995904,None,space,0.3902125999884447,None,P148,001,2025-04-11_08h58.44.825,posner_endo_new1,2024.2.4,59.939928203592224,2025-04-11 08h58.50.543807 +0100,
cube_l.png,0.1,0.31,invalid,45,45,0,up,10.305135499991593,None,space,0.43142699998861644,None,,,,,,,,,0,45,45,45,1830.4342037000024,,,,,,,,,,,,,1830.418755199993,1830.4342037000024,1830.4342037000024,1830.4342037000024,1840.7414882000012,,,,1840.7513180999958,1840.7616572999978,1840.7616572999978,1840.807117599994,1840.8074426999956,1840.8235999000026,1840.8235999000026,1840.8235999000026,1840.906814899994,1841.257745099996,,,,,,,,,,,,,,,,,,,,,,up,10.305135499991593,None,space,0.43142699998861644,None,P148,001,2025-04-11_08h58.44.825,posner_endo_new1,2024.2.4,59.939928203592224,2025-04-11 08h58.50.543807 +0100,
cube_r.png,0.1,0.31,valid,46,46,0,up,14.2824055999954,None,space,0.28585550001298543,None,,,,,,,,,0,46,46,46,1841.2733474999986,,,,,,,,,,,,,1841.2580154000025,1841.2733474999986,1841.2733474999986,1841.2733474999986,1855.5597665999958,,,,1855.5693428999948,1855.5797114000015,1855.5797114000015,1855.6251899999916,1855.6255129999918,1855.6417110000039,1855.6417110000039,1855.6417110000039,1855.7250108000007,1855.9425768999936,,,,,,,,,,,,,,,,,,,,,,up,14.2824055999954,None,space,0.28585550001298543,None,P148,001,2025-04-11_08h58.44.825,posner_endo_new1,2024.2.4,59.939928203592224,2025-04-11 08h58.50.543807 +0100,
cube_l.png,0.1,-0.31,valid,47,47,0,up,9.782149699996808,None,space,0.35843750000640284,None,,,,,,,,,0,47,47,47,1855.9581002999912,,,,,,,,,,,,,1855.942839700001,1855.9581002999912,1855.9581002999912,1855.9581002999912,1865.7492937999923,,,,1865.7587822999922,1865.7691137999936,1865.7691137999936,1865.814874699994,1865.8152087999915,1865.8315487999935,1865.8315487999935,1865.8315487999935,1865.914512999996,1866.1987442999962,,,,,,,,,,,,,,,,,,,,,,up,9.782149699996808,None,space,0.35843750000640284,None,P148,001,2025-04-11_08h58.44.825,posner_endo_new1,2024.2.4,59.939928203592224,2025-04-11 08h58.50.543807 +0100,
cube_r.png,0.1,-0.31,invalid,48,48,0,up,16.813392900003237,None,space,0.2989473000052385,None,,,,,,,,,0,48,48,48,1866.214287900002,,,,,,,,,,,,,1866.1990182000009,1866.214287900002,1866.214287900002,1866.214287900002,1883.0317103999987,,,,1883.0412259000004,1883.0514436999947,1883.0514436999947,1883.0971017999982,1883.0974236000038,1883.1136066999898,1883.1136066999898,1883.1136066999898,1883.1968217999965,1883.4147653999971,,,,,,,,,,,,,,,,,,,,,,up,16.813392900003237,None,space,0.2989473000052385,None,P148,001,2025-04-11_08h58.44.825,posner_endo_new1,2024.2.4,59.939928203592224,2025-04-11 08h58.50.543807 +0100,
cube_r.png,0.1,10,catch,49,49,0,up,11.077343999990262,None,space,0.297384499994223,None,,,,,,,,,0,49,49,49,1883.4300326999946,,,,,,,,,,,,,1883.415024499991,1883.4300326999946,1883.4300326999946,1883.4300326999946,1894.5198018999945,,,,1894.5293609999935,1894.5397223999898,1894.5397223999898,1894.5854966999905,1894.5858172000007,1894.6019815999898,1894.6019815999898,1894.6019815999898,1894.6849980999978,1894.9028509999916,,,,,,,,,,,,,,,,,,,,,,up,11.077343999990262,None,space,0.297384499994223,None,P148,001,2025-04-11_08h58.44.825,posner_endo_new1,2024.2.4,59.939928203592224,2025-04-11 08h58.50.543807 +0100,
cube_l.png,0.1,-0.31,valid,50,50,0,up,9.373046699998667,None,space,0.44047329999739304,None,,,,,,,,,0,50,50,50,1894.9182272000035,,,,,,,,,,,,,1894.9031114999962,1894.9182272000035,1894.9182272000035,1894.9182272000035,1904.2931298999902,,,,1904.302653199993,1904.3130024999991,1904.3130024999991,1904.3587101000012,1904.3590391000034,1904.3754292999947,1904.3754292999947,1904.3754292999947,1904.4584890999977,1904.8258018999913,,,,,,,,,,,,,,,,,,,,,,up,9.373046699998667,None,space,0.44047329999739304,None,P148,001,2025-04-11_08h58.44.825,posner_endo_new1,2024.2.4,59.939928203592224,2025-04-11 08h58.50.543807 +0100,
cube_l.png,0.1,-0.31,valid,51,51,0,up,9.954943600008846,None,space,0.40078779999748804,None,,,,,,,,,0,51,51,51,1904.8413086999935,,,,,,,,,,,,,1904.826069200004,1904.8413086999935,1904.8413086999935,1904.8413086999935,1914.7991921999928,,,,1914.808768899995,1914.8189626999956,1914.8189626999956,1914.864647399998,1914.8649686999997,1914.8811140000034,1914.8811140000034,1914.8811140000034,1914.9643068000005,1915.2986138999986,,,,,,,,,,,,,,,,,,,,,,up,9.954943600008846,None,space,0.40078779999748804,None,P148,001,2025-04-11_08h58.44.825,posner_endo_new1,2024.2.4,59.939928203592224,2025-04-11 08h58.50.543807 +0100,
cube_r.png,0.1,-0.31,invalid,52,52,0,up,9.425256699993042,None,space,0.7222742000012659,None,,,,,,,,,0,52,52,52,1915.3142769999977,,,,,,,,,,,,,1915.2988799000013,1915.3142769999977,1915.3142769999977,1915.3142769999977,1924.7553967999993,,,,1924.7648825999931,1924.7751988999953,1924.7751988999953,1924.8210129999934,1924.8213335000037,1924.8377723000012,1924.8377723000012,1924.8377723000012,1924.9209459999984,1925.5714727000013,,,,,,,,,,,,,,,,,,,,,,up,9.425256699993042,None,space,0.7222742000012659,None,P148,001,2025-04-11_08h58.44.825,posner_endo_new1,2024.2.4,59.939928203592224,2025-04-11 08h58.50.543807 +0100,
cube_l.png,0.1,-0.31,valid,53,53,0,up,8.009203699999489,None,space,0.3715308999962872,None,,,,,,,,,0,53,53,53,1925.5867273999902,,,,,,,,,,,,,1925.5717387999903,1925.5867273999902,1925.5867273999902,1925.5867273999902,1933.6129465999984,,,,1933.6224325999938,1933.6325244000036,1933.6325244000036,1933.678708899999,1933.6790529999998,1933.6951896999963,1933.6951896999963,1933.6951896999963,1933.7784871999902,1934.0792132999923,,,,,,,,,,,,,,,,,,,,,,up,8.009203699999489,None,space,0.3715308999962872,None,P148,001,2025-04-11_08h58.44.825,posner_endo_new1,2024.2.4,59.939928203592224,2025-04-11 08h58.50.543807 +0100,
cube_r.png,0.1,10,catch,54,54,0,up,10.452703699993435,None,None,,,,,,,,,,,0,54,54,54,1934.0947040000028,,,,,,,,,,,,,1934.0794768999913,1934.0947040000028,1934.0947040000028,1934.0947040000028,1944.5520254000003,,,,1944.5614630999917,1944.5716818999936,1944.5716818999936,1944.6174345000036,1944.6177589,1944.634078499992,1944.634078499992,1944.634078499992,1944.7171525000012,1947.6315104999958,,,,1946.7319149999967,1947.6475443999952,1947.6475443999952,1947.6475443999952,,,,,,,,,,,,,,,up,10.452703699993435,None,None,,,P148,001,2025-04-11_08h58.44.825,posner_endo_new1,2024.2.4,59.939928203592224,2025-04-11 08h58.50.543807 +0100,
cube_l.png,0.1,0.31,invalid,55,55,0,up,9.236043099997914,None,space,0.4947570999938762,None,,,,,,,,,0,55,55,55,1947.6475443999952,,,,,,,,,,,,,1947.6317569999956,1947.6475443999952,1947.6475443999952,1947.6475443999952,1956.8892242000002,,,,1956.8987419999903,1956.9091041999927,1956.9091041999927,1956.9549160000024,1956.9552451999916,1956.9713837000018,1956.9713837000018,1956.9713837000018,1957.0547036999924,1957.4721485999908,,,,,,,,,,,,,,,,,,,,,,up,9.236043099997914,None,space,0.4947570999938762,None,P148,001,2025-04-11_08h58.44.825,posner_endo_new1,2024.2.4,59.939928203592224,2025-04-11 08h58.50.543807 +0100,
cube_l.png,0.1,-0.31,valid,56,56,0,up,9.595640300001833,None,space,0.3785527000000002,None,,,,,,,,,0,56,56,56,1957.4875389999943,,,,,,,,,,,,,1957.472408200003,1957.4875389999943,1957.4875389999943,1957.4875389999943,1967.0951733999973,,,,1967.1011939000018,1967.1128089999984,1967.1128089999984,1967.1611151999969,1967.1613538999954,1967.1776370000007,1967.1776370000007,1967.1776370000007,1967.244154,1967.5614139999961,,,,,,,,,,,,,,,,,,,,,,up,9.595640300001833,None,space,0.3785527000000002,None,P148,001,2025-04-11_08h58.44.825,posner_endo_new1,2024.2.4,59.939928203592224,2025-04-11 08h58.50.543807 +0100,
cube_r.png,0.1,0.31,valid,57,57,0,up,12.347544499993091,None,space,0.35633369999413844,None,,,,,,,,,0,57,57,57,1967.5774200000014,,,,,,,,,,,,,1967.5616011999955,1967.5774200000014,1967.5774200000014,1967.5774200000014,1979.9322668999957,,,,1979.9408698999905,1979.9510491999972,1979.9510491999972,1979.9978577000002,1979.998159900002,1980.0144174000015,1980.0144174000015,1980.0144174000015,1980.097826199999,1980.3817161999905,,,,,,,,,,,,,,,,,,,,,,up,12.347544499993091,None,space,0.35633369999413844,None,P148,001,2025-04-11_08h58.44.825,posner_endo_new1,2024.2.4,59.939928203592224,2025-04-11 08h58.50.543807 +0100,
cube_r.png,0.1,-0.31,invalid,58,58,0,up,11.070457699999679,None,space,0.38004380000347737,None,,,,,,,,,0,58,58,58,1980.3974680999963,,,,,,,,,,,,,1980.3819592999935,1980.3974680999963,1980.3974680999963,1980.3974680999963,1991.4705509999912,,,,1991.4791601000034,1991.489340500004,1991.489340500004,1991.5362702999992,1991.5368586999975,1991.55267189999,1991.55267189999,1991.55267189999,1991.6359280000033,1991.9376073000021,,,,,,,,,,,,,,,,,,,,,,up,11.070457699999679,None,space,0.38004380000347737,None,P148,001,2025-04-11_08h58.44.825,posner_endo_new1,2024.2.4,59.939928203592224,2025-04-11 08h58.50.543807 +0100,
cube_l.png,0.1,0.31,invalid,59,59,0,up,8.867595600007917,None,space,0.37362539999594446,None,,,,,,,,,0,59,59,59,1991.952229699993,,,,,,,,,,,,,1991.9380920999974,1991.952229699993,1991.952229699993,1991.952229699993,2000.8285660999973,,,,2000.8466317999992,2000.8580258000002,2000.8580258000002,2000.8932936999918,2000.8936614999984,2000.90987019999,2000.90987019999,2000.90987019999,2000.9930764000019,2001.293912699999,,,,,,,,,,,,,,,,,,,,,,up,8.867595600007917,None,space,0.37362539999594446,None,P148,001,2025-04-11_08h58.44.825,posner_endo_new1,2024.2.4,59.939928203592224,2025-04-11 08h58.50.543807 +0100,
