cue_img,cue_soa,target_x,trial,thisN,thisTrialN,thisRepN,key_control2.keys,key_control2.rt,key_control2.duration,key_resp.keys,key_resp.rt,key_resp.duration,practice.thisRepN,practice.thisTrialN,practice.thisN,practice.thisIndex,block1.thisRepN,block1.thisTrialN,block1.thisN,block1.thisIndex,block2.thisRepN,block2.thisTrialN,block2.thisN,block2.thisIndex,thisRow.t,notes,instructions.started,instructions_txt.started,key_control.started,instructions.stopped,key_control.keys,key_control.rt,key_control.duration,ready.started,ready_txt.started,ready_txt.stopped,ready.stopped,fix.started,fixation.started,key_control2.started,fixation_cross.started,fix.stopped,practice.key_control2.keys,practice.key_control2.rt,practice.key_control2.duration,cue.started,cube.started,fixation_cross_cue.started,cue.stopped,target.started,fixation_target.started,fixation_cross_target.started,key_resp.started,star.started,target.stopped,practice.key_resp.keys,practice.key_resp.rt,practice.key_resp.duration,star.stopped,fixation_target.stopped,fixation_cross_target.stopped,key_resp.stopped,block1.key_control2.keys,block1.key_control2.rt,block1.key_control2.duration,block1.key_resp.keys,block1.key_resp.rt,block1.key_resp.duration,break_2.started,text.started,key_control3.started,text.stopped,break_2.stopped,key_control3.keys,key_control3.rt,key_control3.duration,block2.key_control2.keys,block2.key_control2.rt,block2.key_control2.duration,block2.key_resp.keys,block2.key_resp.rt,block2.key_resp.duration,participant,session,date,expName,psychopyVersion,frameRate,expStart,
,,,,,,,,,,,,,,,,,,,,,,,,,,,0.007511600008001551,0.027788000006694347,0.027788000006694347,3.8947451999993064,up,3.8388583999912953,None,,,,,,,,,,,,,,,,,,,,,,,,,,,,,,,,,,,,,,,,,,,,,,,,,,P149,001,2025-04-11_10h19.18.764,posner_endo_new1,2024.2.4,60.04909613909894,2025-04-11 10h19.26.505003 +0100,
,,,,,,,,,,,,,,,,,,,,,,,,,,,,,,,,,,3.8949059000005946,3.907204899995122,6.920772500001476,6.890522500005318,,,,,,,,,,,,,,,,,,,,,,,,,,,,,,,,,,,,,,,,,,,,,,P149,001,2025-04-11_10h19.18.764,posner_endo_new1,2024.2.4,60.04909613909894,2025-04-11 10h19.26.505003 +0100,
cube_l.png,0.1,-0.31,valid,0,0,0,up,33.27314080001088,None,space,0.3358643000101438,None,0,0,0,0,,,,,,,,,6.920772500001476,,,,,,,,,,,,,6.908299900009297,6.920772500001476,6.920772500001476,6.920772500001476,40.206795200007036,up,33.27314080001088,None,40.219977800006745,40.23038780000934,40.23038780000934,40.27270519999729,40.2729837000079,40.28917740000179,40.28917740000179,40.28917740000179,40.372311800005264,40.63974009999947,space,0.3358643000101438,None,,,,,,,,,,,,,,,,,,,,,,,,,P149,001,2025-04-11_10h19.18.764,posner_endo_new1,2024.2.4,60.04909613909894,2025-04-11 10h19.26.505003 +0100,
cube_r.png,0.1,-0.31,invalid,1,1,0,up,5.443284699998912,None,space,0.33603900000161957,None,0,1,1,6,,,,,,,,,40.65531590000319,,,,,,,,,,,,,40.63995579999755,40.65531590000319,40.65531590000319,40.65531590000319,46.10072580000269,up,5.443284699998912,None,46.10975420000614,46.119581300008576,46.119581300008576,46.16653390000283,46.166803100000834,46.18306959999609,46.18306959999609,46.18306959999609,46.24972659999912,46.53373989999818,space,0.33603900000161957,None,,,,,,,,,,,,,,,,,,,,,,,,,P149,001,2025-04-11_10h19.18.764,posner_endo_new1,2024.2.4,60.04909613909894,2025-04-11 10h19.26.505003 +0100,
cube_r.png,0.1,0.31,valid,2,2,0,up,5.148651800001971,None,space,0.31007589999353513,None,0,2,2,10,,,,,,,,,46.549394100002246,,,,,,,,,,,,,46.53394940000726,46.549394100002246,46.549394100002246,46.549394100002246,51.71183980000205,up,5.148651800001971,None,51.720355199999176,51.73034940000798,51.73034940000798,51.77746820000175,51.77773670000897,51.794037900006515,51.794037900006515,51.794037900006515,51.860782800009474,52.1113297999982,space,0.31007589999353513,None,,,,,,,,,,,,,,,,,,,,,,,,,P149,001,2025-04-11_10h19.18.764,posner_endo_new1,2024.2.4,60.04909613909894,2025-04-11 10h19.26.505003 +0100,
cube_r.png,0.1,10,catch,3,3,0,up,5.627365699998336,None,None,,,0,3,3,3,,,,,,,,,52.127000100008445,,,,,,,,,,,,,52.11154240000178,52.127000100008445,52.127000100008445,52.127000100008445,57.7554325999954,up,5.627365699998336,None,57.76362120000704,57.77434750000248,57.77434750000248,57.82144139999582,57.82171109999763,57.83798670000397,57.83798670000397,57.83798670000397,57.9210635000054,60.83532539999578,None,,,59.93578480000724,60.85139350000827,60.85139350000827,60.85139350000827,,,,,,,,,,,,,,,,,,,,,P149,001,2025-04-11_10h19.18.764,posner_endo_new1,2024.2.4,60.04909613909894,2025-04-11 10h19.26.505003 +0100,
cube_l.png,0.1,0.31,invalid,4,4,0,up,2.9263711999956286,None,space,0.3946871999942232,None,0,4,4,1,,,,,,,,,60.85139350000827,,,,,,,,,,,,,60.835519100000965,60.85139350000827,60.85139350000827,60.85139350000827,63.78300589999708,up,2.9263711999956286,None,63.79139939999732,63.80141780000122,63.80141780000122,63.84851850000268,63.8487896000006,63.86505400000897,63.86505400000897,63.86505400000897,63.948417000006884,64.26575279999815,space,0.3946871999942232,None,,,,,,,,,,,,,,,,,,,,,,,,,P149,001,2025-04-11_10h19.18.764,posner_endo_new1,2024.2.4,60.04909613909894,2025-04-11 10h19.26.505003 +0100,
cube_l.png,0.1,0.31,invalid,5,5,0,up,4.105632399994647,None,space,0.4324540999950841,None,0,5,5,5,,,,,,,,,64.2808728999953,,,,,,,,,,,,,64.26595620000444,64.2808728999953,64.2808728999953,64.2808728999953,68.39471770000819,up,4.105632399994647,None,68.40287010000611,68.4137541000091,68.4137541000091,68.46052100000088,68.46078920000582,68.47697800000606,68.47697800000606,68.47697800000606,68.56025260000024,68.91109940000752,space,0.4324540999950841,None,,,,,,,,,,,,,,,,,,,,,,,,,P149,001,2025-04-11_10h19.18.764,posner_endo_new1,2024.2.4,60.04909613909894,2025-04-11 10h19.26.505003 +0100,
cube_l.png,0.1,-0.31,valid,6,6,0,up,7.39603889999853,None,space,0.3837673999951221,None,0,6,6,4,,,,,,,,,68.92648039999767,,,,,,,,,,,,,68.91130310000153,68.92648039999767,68.92648039999767,68.92648039999767,76.3364797999966,up,7.39603889999853,None,76.3445492000028,76.3550738000049,76.3550738000049,76.40228070000012,76.40255339999567,76.41874170000665,76.41874170000665,76.41874170000665,76.50214910000795,76.81940249999752,space,0.3837673999951221,None,,,,,,,,,,,,,,,,,,,,,,,,,P149,001,2025-04-11_10h19.18.764,posner_endo_new1,2024.2.4,60.04909613909894,2025-04-11 10h19.26.505003 +0100,
cube_l.png,0.1,-0.31,valid,7,7,0,up,5.094747499999357,None,space,0.34511499998916406,None,0,7,7,8,,,,,,,,,76.83513839999796,,,,,,,,,,,,,76.81961140000203,76.83513839999796,76.83513839999796,76.83513839999796,81.93103110000084,up,5.094747499999357,None,81.9395433000027,81.94962189999933,81.94962189999933,81.99658970000746,81.99685700000555,82.01298430000315,82.01298430000315,82.01298430000315,82.09635310000158,82.3639167000074,space,0.34511499998916406,None,,,,,,,,,,,,,,,,,,,,,,,,,P149,001,2025-04-11_10h19.18.764,posner_endo_new1,2024.2.4,60.04909613909894,2025-04-11 10h19.26.505003 +0100,
cube_r.png,0.1,-0.31,invalid,8,8,0,up,8.526210800002445,None,space,0.2990903000027174,None,0,8,8,9,,,,,,,,,82.37941950000823,,,,,,,,,,,,,82.36412569999811,82.37941950000823,82.37941950000823,82.37941950000823,90.92164310000953,up,8.526210800002445,None,90.92976480000652,90.94016600000032,90.94016600000032,90.98738439999579,90.98765199999616,91.00368370000797,91.00368370000797,91.00368370000797,91.08713569999964,91.3046927999967,space,0.2990903000027174,None,,,,,,,,,,,,,,,,,,,,,,,,,P149,001,2025-04-11_10h19.18.764,posner_endo_new1,2024.2.4,60.04909613909894,2025-04-11 10h19.26.505003 +0100,
cube_r.png,0.1,0.31,valid,9,9,0,up,8.761536400008481,None,space,0.3700786999979755,None,0,9,9,7,,,,,,,,,91.320160999996,,,,,,,,,,,,,91.30490160000045,91.320160999996,91.320160999996,91.320160999996,100.09563759999583,up,8.761536400008481,None,100.10420560000057,100.1142594999983,100.1142594999983,100.16141139999672,100.16168319999997,100.17792850000842,100.17792850000842,100.17792850000842,100.2610593999998,100.56171999999788,space,0.3700786999979755,None,,,,,,,,,,,,,,,,,,,,,,,,,P149,001,2025-04-11_10h19.18.764,posner_endo_new1,2024.2.4,60.04909613909894,2025-04-11 10h19.26.505003 +0100,
cube_r.png,0.1,-0.31,invalid,10,10,0,up,6.728515099996002,None,space,0.36615509999683127,None,0,10,10,2,,,,,,,,,100.57741919999535,,,,,,,,,,,,,100.56192839999858,100.57741919999535,100.57741919999535,100.57741919999535,107.32150970000657,up,6.728515099996002,None,107.32953679999628,107.34012760000769,107.34012760000769,107.38736680000147,107.38763630000176,107.4038714000053,107.4038714000053,107.4038714000053,107.48693149999599,107.77129430000787,space,0.36615509999683127,None,,,,,,,,,,,,,,,,,,,,,,,,,P149,001,2025-04-11_10h19.18.764,posner_endo_new1,2024.2.4,60.04909613909894,2025-04-11 10h19.26.505003 +0100,
,,,,,,,,,,,,,,,,,,,,,,,,,,,,,,,,,,107.77143700000306,107.78667830000632,110.79148790000181,110.76749969999946,,,,,,,,,,,,,,,,,,,,,,,,,,,,,,,,,,,,,,,,,,,,,,P149,001,2025-04-11_10h19.18.764,posner_endo_new1,2024.2.4,60.04909613909894,2025-04-11 10h19.26.505003 +0100,
cube_l.png,0.1,10,catch,0,0,0,up,4.498786800002563,None,None,,,,,,,0,0,0,0,,,,,110.79148790000181,,,,,,,,,,,,,110.78265010000905,110.79148790000181,110.79148790000181,110.79148790000181,115.29662419999659,,,,115.30508040000859,115.31530180000118,115.31530180000118,115.36244779999834,115.36271830000624,115.37899969999853,115.37899969999853,115.37899969999853,115.46221060000244,118.37652230000822,,,,117.47673009999562,118.39261660000193,118.39261660000193,118.39261660000193,up,4.498786800002563,None,None,,,,,,,,,,,,,,,,,P149,001,2025-04-11_10h19.18.764,posner_endo_new1,2024.2.4,60.04909613909894,2025-04-11 10h19.26.505003 +0100,
cube_l.png,0.1,10,catch,1,1,0,up,4.033191099995747,None,None,,,,,,,0,1,1,1,,,,,118.39261660000193,,,,,,,,,,,,,118.37672490000841,118.39261660000193,118.39261660000193,118.39261660000193,122.43951650000236,,,,122.44790700000885,122.45818719999806,122.45818719999806,122.50518870000087,122.50545799999963,122.52177490000031,122.52177490000031,122.52177490000031,122.60485050000716,125.51917040000262,,,,124.61957229999825,125.5351965000009,125.5351965000009,125.5351965000009,up,4.033191099995747,None,None,,,,,,,,,,,,,,,,,P149,001,2025-04-11_10h19.18.764,posner_endo_new1,2024.2.4,60.04909613909894,2025-04-11 10h19.26.505003 +0100,
cube_l.png,0.1,0.31,invalid,2,2,0,up,3.387165599997388,None,space,0.3645842999976594,None,,,,,0,2,2,2,,,,,125.5351965000009,,,,,,,,,,,,,125.51937530000578,125.5351965000009,125.5351965000009,125.5351965000009,128.93281460000435,,,,128.94109449999814,128.95140180000453,128.95140180000453,128.99844450000091,128.99871490000805,129.01496889999544,129.01496889999544,129.01496889999544,129.09824300000037,129.38235759999952,,,,,,,,up,3.387165599997388,None,space,0.3645842999976594,None,,,,,,,,,,,,,,,P149,001,2025-04-11_10h19.18.764,posner_endo_new1,2024.2.4,60.04909613909894,2025-04-11 10h19.26.505003 +0100,
cube_l.png,0.1,0.31,invalid,3,3,0,up,10.164490600000136,None,space,0.319161500010523,None,,,,,0,3,3,3,,,,,129.39778130000923,,,,,,,,,,,,,129.3825852000009,129.39778130000923,129.39778130000923,129.39778130000923,139.57198200000857,,,,139.58039230000577,139.59049960000266,139.59049960000266,139.63743740000064,139.6377094000054,139.6541975,139.6541975,139.6541975,139.73727480000525,139.98812789999647,,,,,,,,up,10.164490600000136,None,space,0.319161500010523,None,,,,,,,,,,,,,,,P149,001,2025-04-11_10h19.18.764,posner_endo_new1,2024.2.4,60.04909613909894,2025-04-11 10h19.26.505003 +0100,
cube_l.png,0.1,-0.31,valid,4,4,0,up,12.093551900004968,None,space,0.3688010000041686,None,,,,,0,4,4,4,,,,,140.0038807999954,,,,,,,,,,,,,139.9883503000019,140.0038807999954,140.0038807999954,140.0038807999954,152.1090966000047,,,,152.11718480000854,152.12762280000607,152.12762280000607,152.17477240000153,152.17503969999962,152.19125879999774,152.19125879999774,152.19125879999774,152.2745150999981,152.5750049000053,,,,,,,,up,12.093551900004968,None,space,0.3688010000041686,None,,,,,,,,,,,,,,,P149,001,2025-04-11_10h19.18.764,posner_endo_new1,2024.2.4,60.04909613909894,2025-04-11 10h19.26.505003 +0100,
cube_r.png,0.1,-0.31,invalid,5,5,0,up,5.372182199993404,None,space,0.3775110999995377,None,,,,,0,5,5,5,,,,,152.59102740000526,,,,,,,,,,,,,152.57522020000033,152.59102740000526,152.59102740000526,152.59102740000526,157.96965199999977,,,,157.9778151000064,157.98828990000766,157.98828990000766,158.0354689000087,158.0357365999953,158.05208819999825,158.05208819999825,158.05208819999825,158.13514090000535,158.4360452999972,,,,,,,,up,5.372182199993404,None,space,0.3775110999995377,None,,,,,,,,,,,,,,,P149,001,2025-04-11_10h19.18.764,posner_endo_new1,2024.2.4,60.04909613909894,2025-04-11 10h19.26.505003 +0100,
cube_r.png,0.1,0.31,valid,6,6,0,up,2.8382821999985026,None,space,0.3351228999963496,None,,,,,0,6,6,6,,,,,158.45168019999983,,,,,,,,,,,,,158.43626309999672,158.45168019999983,158.45168019999983,158.45168019999983,161.2995499999961,,,,161.3077384000062,161.3181149000011,161.3181149000011,161.36505540000508,161.365323799997,161.38203999999678,161.38203999999678,161.38203999999678,161.465125600007,161.73256820000825,,,,,,,,up,2.8382821999985026,None,space,0.3351228999963496,None,,,,,,,,,,,,,,,P149,001,2025-04-11_10h19.18.764,posner_endo_new1,2024.2.4,60.04909613909894,2025-04-11 10h19.26.505003 +0100,
cube_r.png,0.1,-0.31,invalid,7,7,0,up,3.3337833999976283,None,space,0.31904869999561924,None,,,,,0,7,7,7,,,,,161.7483171000058,,,,,,,,,,,,,161.73278500000015,161.7483171000058,161.7483171000058,161.7483171000058,165.09595879999688,,,,165.10527660000662,165.11509279999882,165.11509279999882,165.16131060000043,165.16155340000114,165.17814139999973,165.17814139999973,165.17814139999973,165.26113579999947,165.51181460000225,,,,,,,,up,3.3337833999976283,None,space,0.31904869999561924,None,,,,,,,,,,,,,,,P149,001,2025-04-11_10h19.18.764,posner_endo_new1,2024.2.4,60.04909613909894,2025-04-11 10h19.26.505003 +0100,
cube_l.png,0.1,-0.31,valid,8,8,0,up,7.291384500000277,None,space,0.3630848999891896,None,,,,,0,8,8,8,,,,,165.52760990000388,,,,,,,,,,,,,165.51200810000591,165.52760990000388,165.52760990000388,165.52760990000388,172.82121589999588,,,,172.82851210000808,172.83969760000764,172.83969760000764,172.88652410000213,172.88676809999743,172.90343780000694,172.90343780000694,172.90343780000694,172.9863694000087,173.27025760000106,,,,,,,,up,7.291384500000277,None,space,0.3630848999891896,None,,,,,,,,,,,,,,,P149,001,2025-04-11_10h19.18.764,posner_endo_new1,2024.2.4,60.04909613909894,2025-04-11 10h19.26.505003 +0100,
cube_r.png,0.1,-0.31,invalid,9,9,0,up,6.156198399999994,None,space,0.3411496999906376,None,,,,,0,9,9,9,,,,,173.28626700000314,,,,,,,,,,,,,173.27045379999618,173.28626700000314,173.28626700000314,173.28626700000314,179.44769670000824,,,,179.45487460000732,179.46656880000955,179.46656880000955,179.51321400000597,179.51344399999653,179.52999910000653,179.52999910000653,179.52999910000653,179.6132471000019,179.88039970000682,,,,,,,,up,6.156198399999994,None,space,0.3411496999906376,None,,,,,,,,,,,,,,,P149,001,2025-04-11_10h19.18.764,posner_endo_new1,2024.2.4,60.04909613909894,2025-04-11 10h19.26.505003 +0100,
cube_l.png,0.1,0.31,invalid,10,10,0,up,6.105326600008993,None,space,0.2888653999980306,None,,,,,0,10,10,10,,,,,179.896336100006,,,,,,,,,,,,,179.8805782999989,179.896336100006,179.896336100006,179.896336100006,186.00758440000936,,,,186.0146104000014,186.0262120999978,186.0262120999978,186.07342499999504,186.07365669999854,186.09005400000024,186.09005400000024,186.09005400000024,186.15659670000605,186.39053020000574,,,,,,,,up,6.105326600008993,None,space,0.2888653999980306,None,,,,,,,,,,,,,,,P149,001,2025-04-11_10h19.18.764,posner_endo_new1,2024.2.4,60.04909613909894,2025-04-11 10h19.26.505003 +0100,
cube_r.png,0.1,-0.31,invalid,11,11,0,up,5.676411699998425,None,space,0.36415860000124667,None,,,,,0,11,11,11,,,,,186.40595980000217,,,,,,,,,,,,,186.3907099000062,186.40595980000217,186.40595980000217,186.40595980000217,192.08457839999755,,,,192.09096139999747,192.10233470000094,192.10233470000094,192.15053559999797,192.1507711000013,192.16700129999663,192.16700129999663,192.16700129999663,192.23360220000905,192.53391860000556,,,,,,,,up,5.676411699998425,None,space,0.36415860000124667,None,,,,,,,,,,,,,,,P149,001,2025-04-11_10h19.18.764,posner_endo_new1,2024.2.4,60.04909613909894,2025-04-11 10h19.26.505003 +0100,
cube_r.png,0.1,0.31,valid,12,12,0,up,6.3797137000074144,None,space,0.3433088999881875,None,,,,,0,12,12,12,,,,,192.55010180000681,,,,,,,,,,,,,192.53409889999602,192.55010180000681,192.55010180000681,192.55010180000681,198.94428589999734,,,,198.95083879999584,198.96242569999595,198.96242569999595,199.01020180000341,199.01043290000234,199.02676300000167,199.02676300000167,199.02676300000167,199.09325479999825,199.37690820000716,,,,,,,,up,6.3797137000074144,None,space,0.3433088999881875,None,,,,,,,,,,,,,,,P149,001,2025-04-11_10h19.18.764,posner_endo_new1,2024.2.4,60.04909613909894,2025-04-11 10h19.26.505003 +0100,
cube_l.png,0.1,10,catch,13,13,0,up,4.8409519999986514,None,None,,,,,,,0,13,13,13,,,,,199.39298750000307,,,,,,,,,,,,,199.37709789999644,199.39298750000307,199.39298750000307,199.39298750000307,204.2388443999953,,,,204.24520259999554,204.25672940000368,204.25672940000368,204.304552600006,204.3047857000056,204.32131690000824,204.32131690000824,204.32131690000824,204.38795550000214,207.31860820000293,,,,206.402468100001,207.33490100000927,207.33490100000927,207.33490100000927,up,4.8409519999986514,None,None,,,,,,,,,,,,,,,,,P149,001,2025-04-11_10h19.18.764,posner_endo_new1,2024.2.4,60.04909613909894,2025-04-11 10h19.26.505003 +0100,
cube_r.png,0.1,-0.31,invalid,14,14,0,up,3.4027100000093924,None,space,0.3677451999974437,None,,,,,0,14,14,14,,,,,207.33490100000927,,,,,,,,,,,,,207.31877739999618,207.33490100000927,207.33490100000927,207.33490100000927,210.74844280000252,,,,210.75480270000116,210.76628110000456,210.76628110000456,210.81480219999503,210.81503579999844,210.83128320000833,210.83128320000833,210.83128320000833,210.89753800000472,211.21476760000223,,,,,,,,up,3.4027100000093924,None,space,0.3677451999974437,None,,,,,,,,,,,,,,,P149,001,2025-04-11_10h19.18.764,posner_endo_new1,2024.2.4,60.04909613909894,2025-04-11 10h19.26.505003 +0100,
cube_l.png,0.1,-0.31,valid,15,15,0,up,6.083311599999433,None,space,0.39991559999180026,None,,,,,0,15,15,15,,,,,211.23044400000072,,,,,,,,,,,,,211.21495069999946,211.23044400000072,211.23044400000072,211.23044400000072,217.32567710000149,,,,217.33844659999886,217.34856020000007,217.34856020000007,217.3910615000059,217.39145399999688,217.4075204999972,217.4075204999972,217.4075204999972,217.4907663000049,217.8089236000087,,,,,,,,up,6.083311599999433,None,space,0.39991559999180026,None,,,,,,,,,,,,,,,P149,001,2025-04-11_10h19.18.764,posner_endo_new1,2024.2.4,60.04909613909894,2025-04-11 10h19.26.505003 +0100,
cube_r.png,0.1,10,catch,16,16,0,up,7.730343700008234,None,None,,,,,,,0,16,16,16,,,,,217.82375650000176,,,,,,,,,,,,,217.80927340000926,217.82375650000176,217.82375650000176,217.82375650000176,225.56723980000243,,,,225.5803603999957,225.59051950000867,225.59051950000867,225.6326240000053,225.63302609999664,225.64907300000777,225.64907300000777,225.64907300000777,225.73232789999747,228.64683310000692,,,,227.7469126000069,228.66263900000195,228.66263900000195,228.66263900000195,up,7.730343700008234,None,None,,,,,,,,,,,,,,,,,P149,001,2025-04-11_10h19.18.764,posner_endo_new1,2024.2.4,60.04909613909894,2025-04-11 10h19.26.505003 +0100,
cube_r.png,0.1,10,catch,17,17,0,up,1.1635160000005271,None,None,,,,,,,0,17,17,17,,,,,228.66263900000195,,,,,,,,,,,,,228.64714300000924,228.66263900000195,228.66263900000195,228.66263900000195,229.82968470000196,,,,229.84270110000216,229.85288800000853,229.85288800000853,229.8949261000089,229.89532009999675,229.91140779999841,229.91140779999841,229.91140779999841,229.99464820000867,232.9091688000044,,,,232.0092408000055,232.9249473999953,232.9249473999953,232.9249473999953,up,1.1635160000005271,None,None,,,,,,,,,,,,,,,,,P149,001,2025-04-11_10h19.18.764,posner_endo_new1,2024.2.4,60.04909613909894,2025-04-11 10h19.26.505003 +0100,
cube_l.png,0.1,0.31,invalid,18,18,0,up,2.461472800001502,None,space,0.4628452000033576,None,,,,,0,18,18,18,,,,,232.9249473999953,,,,,,,,,,,,,232.90948319999734,232.9249473999953,232.9249473999953,232.9249473999953,235.39067590000923,,,,235.40364430000773,235.41377290000673,235.41377290000673,235.4562072999979,235.45647720000125,235.47269439999945,235.47269439999945,235.47269439999945,235.5559893000027,235.93994450000173,,,,,,,,up,2.461472800001502,None,space,0.4628452000033576,None,,,,,,,,,,,,,,,P149,001,2025-04-11_10h19.18.764,posner_endo_new1,2024.2.4,60.04909613909894,2025-04-11 10h19.26.505003 +0100,
cube_l.png,0.1,10,catch,19,19,0,up,4.429936000000453,None,None,,,,,,,0,19,19,19,,,,,235.95558779999556,,,,,,,,,,,,,235.9401710000093,235.95558779999556,235.95558779999556,235.95558779999556,240.40207670000382,,,,240.41016220000165,240.4205920999957,240.4205920999957,240.4677473000047,240.4680226000055,240.48437099999865,240.48437099999865,240.48437099999865,240.5674452000094,243.48194240000157,,,,242.5821195000026,243.4977385999955,243.4977385999955,243.4977385999955,up,4.429936000000453,None,None,,,,,,,,,,,,,,,,,P149,001,2025-04-11_10h19.18.764,posner_endo_new1,2024.2.4,60.04909613909894,2025-04-11 10h19.26.505003 +0100,
cube_l.png,0.1,0.31,invalid,20,20,0,up,2.416608500003349,None,space,0.4546461999998428,None,,,,,0,20,20,20,,,,,243.4977385999955,,,,,,,,,,,,,243.4821479000093,243.4977385999955,243.4977385999955,243.4977385999955,245.92939150000166,,,,245.9375624999957,245.94822140000178,245.94822140000178,245.9954357999959,245.99570349999703,246.0120670000033,246.0120670000033,246.0120670000033,246.07870310000726,246.47911529999692,,,,,,,,up,2.416608500003349,None,space,0.4546461999998428,None,,,,,,,,,,,,,,,P149,001,2025-04-11_10h19.18.764,posner_endo_new1,2024.2.4,60.04909613909894,2025-04-11 10h19.26.505003 +0100,
cube_l.png,0.1,-0.31,valid,21,21,0,up,8.587277099999483,None,space,0.42584090000309516,None,,,,,0,21,21,21,,,,,246.49477730000217,,,,,,,,,,,,,246.47933820000617,246.49477730000217,246.49477730000217,246.49477730000217,255.08705940000073,,,,255.0951747000072,255.1056236000004,255.1056236000004,255.15267940000922,255.15294949999952,255.16929040000832,255.16929040000832,255.16929040000832,255.2523896000057,255.60316410000087,,,,,,,,up,8.587277099999483,None,space,0.42584090000309516,None,,,,,,,,,,,,,,,P149,001,2025-04-11_10h19.18.764,posner_endo_new1,2024.2.4,60.04909613909894,2025-04-11 10h19.26.505003 +0100,
cube_r.png,0.1,0.31,valid,22,22,0,up,10.494914199996856,None,space,0.395045500001288,None,,,,,0,22,22,22,,,,,255.61904240000877,,,,,,,,,,,,,255.60338929999853,255.61904240000877,255.61904240000877,255.61904240000877,266.125695499999,,,,266.13377060000494,266.14426270000695,266.14426270000695,266.1914606000064,266.1917250999977,266.20796549999795,266.20796549999795,266.20796549999795,266.29128910000145,266.60867359999975,,,,,,,,up,10.494914199996856,None,space,0.395045500001288,None,,,,,,,,,,,,,,,P149,001,2025-04-11_10h19.18.764,posner_endo_new1,2024.2.4,60.04909613909894,2025-04-11 10h19.26.505003 +0100,
cube_r.png,0.1,-0.31,invalid,23,23,0,up,6.5052112999983365,None,space,0.35692289999860805,None,,,,,0,23,23,23,,,,,266.62441899999976,,,,,,,,,,,,,266.6088879000017,266.62441899999976,266.62441899999976,266.62441899999976,273.13517560000764,,,,273.1432496000052,273.1538090999966,273.1538090999966,273.2009585000051,273.20122339999944,273.2175686999981,273.2175686999981,273.2175686999981,273.30074550000427,273.5849479000026,,,,,,,,up,6.5052112999983365,None,space,0.35692289999860805,None,,,,,,,,,,,,,,,P149,001,2025-04-11_10h19.18.764,posner_endo_new1,2024.2.4,60.04909613909894,2025-04-11 10h19.26.505003 +0100,
cube_r.png,0.1,0.31,valid,24,24,0,up,5.577949799990165,None,space,0.3339842999994289,None,,,,,0,24,24,24,,,,,273.59986590000335,,,,,,,,,,,,,273.58513039999525,273.59986590000335,273.59986590000335,273.59986590000335,279.1788547000033,,,,279.1850192999991,279.19654370000353,279.19654370000353,279.24457920000714,279.2448093999992,279.2612317000021,279.2612317000021,279.2612317000021,279.34446140000364,279.6116413999989,,,,,,,,up,5.577949799990165,None,space,0.3339842999994289,None,,,,,,,,,,,,,,,P149,001,2025-04-11_10h19.18.764,posner_endo_new1,2024.2.4,60.04909613909894,2025-04-11 10h19.26.505003 +0100,
cube_r.png,0.1,-0.31,invalid,25,25,0,up,5.046309299999848,None,space,0.3453155000024708,None,,,,,0,25,25,25,,,,,279.62764950000565,,,,,,,,,,,,,279.6118220000062,279.62764950000565,279.62764950000565,279.62764950000565,284.6897004000057,,,,284.69569839999895,284.7071098000015,284.7071098000015,284.75581060000695,284.7560452000034,284.7724201000092,284.7724201000092,284.7724201000092,284.8389463000058,285.12280369999644,,,,,,,,up,5.046309299999848,None,space,0.3453155000024708,None,,,,,,,,,,,,,,,P149,001,2025-04-11_10h19.18.764,posner_endo_new1,2024.2.4,60.04909613909894,2025-04-11 10h19.26.505003 +0100,
cube_l.png,0.1,-0.31,valid,26,26,0,up,5.7118677999969805,None,space,0.36554340001021046,None,,,,,0,26,26,26,,,,,285.13839039999584,,,,,,,,,,,,,285.12298230000306,285.13839039999584,285.13839039999584,285.13839039999584,290.8664245999971,,,,290.8724768999964,290.8839169999992,290.8839169999992,290.932767899998,290.9329992999992,290.9494196000014,290.9494196000014,290.9494196000014,291.015545000002,291.3165469000087,,,,,,,,up,5.7118677999969805,None,space,0.36554340001021046,None,,,,,,,,,,,,,,,P149,001,2025-04-11_10h19.18.764,posner_endo_new1,2024.2.4,60.04909613909894,2025-04-11 10h19.26.505003 +0100,
cube_r.png,0.1,0.31,valid,27,27,0,up,6.422518299994408,None,space,0.38183399999979883,None,,,,,0,27,27,27,,,,,291.33188990000053,,,,,,,,,,,,,291.3167264000076,291.33188990000053,291.33188990000053,291.33188990000053,297.7598838999984,,,,297.766051700004,297.77760580000177,297.77760580000177,297.82581599999685,297.8260541000054,297.84224680000625,297.84224680000625,297.84224680000625,297.92549979999603,298.22577590000583,,,,,,,,up,6.422518299994408,None,space,0.38183399999979883,None,,,,,,,,,,,,,,,P149,001,2025-04-11_10h19.18.764,posner_endo_new1,2024.2.4,60.04909613909894,2025-04-11 10h19.26.505003 +0100,
cube_r.png,0.1,10,catch,28,28,0,up,6.183804500004044,None,None,,,,,,,0,28,28,28,,,,,298.24183739999717,,,,,,,,,,,,,298.2259639999975,298.24183739999717,298.24183739999717,298.24183739999717,304.4363047000079,,,,304.4422682000004,304.45388050000474,304.45388050000474,304.50219189999916,304.50242250000883,304.51876849999826,304.51876849999826,304.51876849999826,304.60216360000777,307.51620890000777,,,,306.6166382000083,307.5324288999982,307.5324288999982,307.5324288999982,up,6.183804500004044,None,None,,,,,,,,,,,,,,,,,P149,001,2025-04-11_10h19.18.764,posner_endo_new1,2024.2.4,60.04909613909894,2025-04-11 10h19.26.505003 +0100,
cube_r.png,0.1,0.31,valid,29,29,0,up,2.5971051000087755,None,space,0.3909687999985181,None,,,,,0,29,29,29,,,,,307.5324288999982,,,,,,,,,,,,,307.5163782000018,307.5324288999982,307.5324288999982,307.5324288999982,310.13053680000303,,,,310.13648460000695,310.14798110000265,310.14798110000265,310.19650900000124,310.1967361999996,310.2130198000086,310.2130198000086,310.2130198000086,310.27956670000276,310.61322149999614,,,,,,,,up,2.5971051000087755,None,space,0.3909687999985181,None,,,,,,,,,,,,,,,P149,001,2025-04-11_10h19.18.764,posner_endo_new1,2024.2.4,60.04909613909894,2025-04-11 10h19.26.505003 +0100,
cube_r.png,0.1,0.31,valid,30,30,0,up,4.964978099989821,None,space,0.3177496999996947,None,,,,,0,30,30,30,,,,,310.6291151000041,,,,,,,,,,,,,310.6134022000042,310.6291151000041,310.6291151000041,310.6291151000041,315.60813380000764,,,,315.61408080000547,315.62587370000256,315.62587370000256,315.6739942999993,315.6742252999975,315.69061469999724,315.69061469999724,315.69061469999724,315.75721989999874,316.02448160000495,,,,,,,,up,4.964978099989821,None,space,0.3177496999996947,None,,,,,,,,,,,,,,,P149,001,2025-04-11_10h19.18.764,posner_endo_new1,2024.2.4,60.04909613909894,2025-04-11 10h19.26.505003 +0100,
cube_l.png,0.1,-0.31,valid,31,31,0,up,3.818014900010894,None,space,0.37422200001310557,None,,,,,0,31,31,31,,,,,316.04019210000115,,,,,,,,,,,,,316.02466670000285,316.04019210000115,316.04019210000115,316.04019210000115,319.8706409000006,,,,319.8766486999957,319.88821910000115,319.88821910000115,319.9363299999968,319.93655939999735,319.9530448000005,319.9530448000005,319.9530448000005,320.0362385000044,320.3366127000045,,,,,,,,up,3.818014900010894,None,space,0.37422200001310557,None,,,,,,,,,,,,,,,P149,001,2025-04-11_10h19.18.764,posner_endo_new1,2024.2.4,60.04909613909894,2025-04-11 10h19.26.505003 +0100,
cube_r.png,0.1,0.31,valid,32,32,0,up,8.210076500006835,None,space,0.30650940000487026,None,,,,,0,32,32,32,,,,,320.3521299999993,,,,,,,,,,,,,320.336790500005,320.3521299999993,320.3521299999993,320.3521299999993,328.5781238000054,,,,328.58401530000265,328.5957081000088,328.5957081000088,328.64420999999857,328.64443980000215,328.66064319999714,328.66064319999714,328.66064319999714,328.7272765000089,328.9778578999976,,,,,,,,up,8.210076500006835,None,space,0.30650940000487026,None,,,,,,,,,,,,,,,P149,001,2025-04-11_10h19.18.764,posner_endo_new1,2024.2.4,60.04909613909894,2025-04-11 10h19.26.505003 +0100,
cube_r.png,0.1,-0.31,invalid,33,33,0,up,6.4887481999903684,None,space,0.314924999998766,None,,,,,0,33,33,33,,,,,328.9937011000002,,,,,,,,,,,,,328.9780396999995,328.9937011000002,328.9937011000002,328.9937011000002,335.48779270000523,,,,335.49378720000095,335.50546650000615,335.50546650000615,335.55379130000074,335.5540233000065,335.5700302000041,335.5700302000041,335.5700302000041,335.6369214000006,335.88715370000864,,,,,,,,up,6.4887481999903684,None,space,0.314924999998766,None,,,,,,,,,,,,,,,P149,001,2025-04-11_10h19.18.764,posner_endo_new1,2024.2.4,60.04909613909894,2025-04-11 10h19.26.505003 +0100,
cube_r.png,0.1,10,catch,34,34,0,up,12.939055199996801,None,None,,,,,,,0,34,34,34,,,,,335.9030138000089,,,,,,,,,,,,,335.8873334000091,335.9030138000089,335.9030138000089,335.9030138000089,348.8575645000092,,,,348.8635118000093,348.875099900004,348.875099900004,348.92349850000755,348.9237334000063,348.9397553000017,348.9397553000017,348.9397553000017,349.023177199997,351.9373454000015,,,,351.03787739999825,351.95347510000283,351.95347510000283,351.95347510000283,up,12.939055199996801,None,None,,,,,,,,,,,,,,,,,P149,001,2025-04-11_10h19.18.764,posner_endo_new1,2024.2.4,60.04909613909894,2025-04-11 10h19.26.505003 +0100,
cube_r.png,0.1,0.31,valid,35,35,0,up,3.1206893999915337,None,space,0.3510117999976501,None,,,,,0,35,35,35,,,,,351.95347510000283,,,,,,,,,,,,,351.937514300007,351.95347510000283,351.95347510000283,351.95347510000283,355.0844713999977,,,,355.09046079999825,355.1020830000052,355.1020830000052,355.15034020000894,355.15056999999797,355.1668795000005,355.1668795000005,355.1668795000005,355.2334380999964,355.5338697999978,,,,,,,,up,3.1206893999915337,None,space,0.3510117999976501,None,,,,,,,,,,,,,,,P149,001,2025-04-11_10h19.18.764,posner_endo_new1,2024.2.4,60.04909613909894,2025-04-11 10h19.26.505003 +0100,
cube_r.png,0.1,-0.31,invalid,36,36,0,up,7.07635279999522,None,space,0.41802690000622533,None,,,,,0,36,36,36,,,,,355.54947650000395,,,,,,,,,,,,,355.5340508000081,355.54947650000395,355.54947650000395,355.54947650000395,362.62686479999684,,,,362.6327825000044,362.6441967999999,362.6441967999999,362.6926094000082,362.6928518000059,362.70902080000087,362.70902080000087,362.70902080000087,362.7924456000037,363.1429635999957,,,,,,,,up,7.07635279999522,None,space,0.41802690000622533,None,,,,,,,,,,,,,,,P149,001,2025-04-11_10h19.18.764,posner_endo_new1,2024.2.4,60.04909613909894,2025-04-11 10h19.26.505003 +0100,
cube_l.png,0.1,0.31,invalid,37,37,0,up,5.31518240000878,None,space,0.37264780000259634,None,,,,,0,37,37,37,,,,,363.1586305999954,,,,,,,,,,,,,363.14315040000656,363.1586305999954,363.1586305999954,363.1586305999954,368.4874661000067,,,,368.4934143999999,368.5049119000032,368.5049119000032,368.5533895999979,368.55362449999666,368.56997100000444,368.56997100000444,368.56997100000444,368.6530333999981,368.9535532000009,,,,,,,,up,5.31518240000878,None,space,0.37264780000259634,None,,,,,,,,,,,,,,,P149,001,2025-04-11_10h19.18.764,posner_endo_new1,2024.2.4,60.04909613909894,2025-04-11 10h19.26.505003 +0100,
cube_l.png,0.1,0.31,invalid,38,38,0,up,6.208873099996708,None,space,0.42422610000357963,None,,,,,0,38,38,38,,,,,368.96937950000574,,,,,,,,,,,,,368.9537382999988,368.96937950000574,368.96937950000574,368.96937950000574,375.180732599998,,,,375.186658000006,375.19820739999705,375.19820739999705,375.24646660000144,375.24669699999504,375.2630615000089,375.2630615000089,375.2630615000089,375.346185900009,375.69679899999755,,,,,,,,up,6.208873099996708,None,space,0.42422610000357963,None,,,,,,,,,,,,,,,P149,001,2025-04-11_10h19.18.764,posner_endo_new1,2024.2.4,60.04909613909894,2025-04-11 10h19.26.505003 +0100,
cube_r.png,0.1,0.31,valid,39,39,0,up,7.209646799994516,None,space,0.4161764000018593,None,,,,,0,39,39,39,,,,,375.7125453000044,,,,,,,,,,,,,375.6969798000064,375.7125453000044,375.7125453000044,375.7125453000044,382.92298790000496,,,,382.9289054999972,382.9407671000081,382.9407671000081,382.98866790000466,382.98890409999876,383.00505229999544,383.00505229999544,383.00505229999544,383.08830370000214,383.4224041999987,,,,,,,,up,7.209646799994516,None,space,0.4161764000018593,None,,,,,,,,,,,,,,,P149,001,2025-04-11_10h19.18.764,posner_endo_new1,2024.2.4,60.04909613909894,2025-04-11 10h19.26.505003 +0100,
cube_l.png,0.1,0.31,invalid,40,40,0,up,4.763804300004267,None,space,0.4353681999928085,None,,,,,0,40,40,40,,,,,383.4381513999979,,,,,,,,,,,,,383.42258270000457,383.4381513999979,383.4381513999979,383.4381513999979,388.21712580000167,,,,388.22300100000575,388.23455079999985,388.23455079999985,388.2828057000006,388.2830341000081,388.299798299995,388.299798299995,388.299798299995,388.3658953999984,388.75005250000686,,,,,,,,up,4.763804300004267,None,space,0.4353681999928085,None,,,,,,,,,,,,,,,P149,001,2025-04-11_10h19.18.764,posner_endo_new1,2024.2.4,60.04909613909894,2025-04-11 10h19.26.505003 +0100,
cube_l.png,0.1,10,catch,41,41,0,up,3.796351199998753,None,None,,,,,,,0,41,41,41,,,,,388.7657310000068,,,,,,,,,,,,,388.7502367999987,388.7657310000068,388.7657310000068,388.7657310000068,392.5628871000081,,,,392.56880609999644,392.5801649000059,392.5801649000059,392.6283104000031,392.62854730000254,392.6452808000031,392.6452808000031,392.6452808000031,392.7280701999989,395.642689100001,,,,394.74299189999874,395.6588209000038,395.6588209000038,395.6588209000038,up,3.796351199998753,None,None,,,,,,,,,,,,,,,,,P149,001,2025-04-11_10h19.18.764,posner_endo_new1,2024.2.4,60.04909613909894,2025-04-11 10h19.26.505003 +0100,
cube_l.png,0.1,-0.31,valid,42,42,0,up,1.6147455999889644,None,space,0.49980769999092445,None,,,,,0,42,42,42,,,,,395.6588209000038,,,,,,,,,,,,,395.6428580000065,395.6588209000038,395.6588209000038,395.6588209000038,397.2746699999989,,,,397.2807118000055,397.29237949999515,397.29237949999515,397.34051150000596,397.34073999999964,397.35709649999626,397.35709649999626,397.35709649999626,397.4235633000062,397.8577065999998,,,,,,,,up,1.6147455999889644,None,space,0.49980769999092445,None,,,,,,,,,,,,,,,P149,001,2025-04-11_10h19.18.764,posner_endo_new1,2024.2.4,60.04909613909894,2025-04-11 10h19.26.505003 +0100,
cube_l.png,0.1,10,catch,43,43,0,up,5.3523348000016995,None,None,,,,,,,0,43,43,43,,,,,397.8734811000031,,,,,,,,,,,,,397.85788660000253,397.8734811000031,397.8734811000031,397.8734811000031,403.2352291999996,,,,403.24122130000615,403.252628000002,403.252628000002,403.30118870000297,403.3014208999957,403.3176797000051,403.3176797000051,403.3176797000051,403.400844600008,406.3150978000049,,,,405.4157033000083,406.3311747999978,406.3311747999978,406.3311747999978,up,5.3523348000016995,None,None,,,,,,,,,,,,,,,,,P149,001,2025-04-11_10h19.18.764,posner_endo_new1,2024.2.4,60.04909613909894,2025-04-11 10h19.26.505003 +0100,
cube_l.png,0.1,0.31,invalid,44,44,0,up,2.318718299997272,None,space,0.4404022999951849,None,,,,,0,44,44,44,,,,,406.3311747999978,,,,,,,,,,,,,406.3152659000043,406.3311747999978,406.3311747999978,406.3311747999978,408.66278130000865,,,,408.66871009999886,408.6802066999953,408.6802066999953,408.72893349999504,408.72916679999616,408.7453772000008,408.7453772000008,408.7453772000008,408.81207660000655,409.1957126000052,,,,,,,,up,2.318718299997272,None,space,0.4404022999951849,None,,,,,,,,,,,,,,,P149,001,2025-04-11_10h19.18.764,posner_endo_new1,2024.2.4,60.04909613909894,2025-04-11 10h19.26.505003 +0100,
cube_l.png,0.1,0.31,invalid,45,45,0,up,3.8384413000021596,None,space,0.40349159999459516,None,,,,,0,45,45,45,,,,,409.2115776999999,,,,,,,,,,,,,409.1958986999962,409.2115776999999,409.2115776999999,409.2115776999999,413.058366199999,,,,413.0643426000024,413.07596080000803,413.07596080000803,413.12441079999553,413.1246417000075,413.1409730000014,413.1409730000014,413.1409730000014,413.2073715000006,413.55802830000175,,,,,,,,up,3.8384413000021596,None,space,0.40349159999459516,None,,,,,,,,,,,,,,,P149,001,2025-04-11_10h19.18.764,posner_endo_new1,2024.2.4,60.04909613909894,2025-04-11 10h19.26.505003 +0100,
cube_r.png,0.1,0.31,valid,46,46,0,up,4.364259000009042,None,space,0.3458919999975478,None,,,,,0,46,46,46,,,,,413.57373350000125,,,,,,,,,,,,,413.5582108999952,413.57373350000125,413.57373350000125,413.57373350000125,417.9529904000083,,,,417.9588858000061,417.97057140000106,417.97057140000106,418.01925969999866,418.0194890999992,418.0359601999953,418.0359601999953,418.0359601999953,418.1020680000074,418.3864068999974,,,,,,,,up,4.364259000009042,None,space,0.3458919999975478,None,,,,,,,,,,,,,,,P149,001,2025-04-11_10h19.18.764,posner_endo_new1,2024.2.4,60.04909613909894,2025-04-11 10h19.26.505003 +0100,
cube_l.png,0.1,-0.31,valid,47,47,0,up,4.063785100006498,None,space,0.3998196000029566,None,,,,,0,47,47,47,,,,,418.40232090000063,,,,,,,,,,,,,418.3865835000033,418.40232090000063,418.40232090000063,418.40232090000063,422.482282500001,,,,422.4881488999963,422.49957470000663,422.49957470000663,422.54825160000473,422.5484897999995,422.56448870000895,422.56448870000895,422.56448870000895,422.6479127000057,422.9815085000009,,,,,,,,up,4.063785100006498,None,space,0.3998196000029566,None,,,,,,,,,,,,,,,P149,001,2025-04-11_10h19.18.764,posner_endo_new1,2024.2.4,60.04909613909894,2025-04-11 10h19.26.505003 +0100,
cube_r.png,0.1,-0.31,invalid,48,48,0,up,4.988560600002529,None,space,0.44827019999502227,None,,,,,0,48,48,48,,,,,422.99755780000123,,,,,,,,,,,,,422.9816884000029,422.99755780000123,422.99755780000123,422.99755780000123,427.9930885000067,,,,427.99904150000657,428.0105668000033,428.0105668000033,428.0592270000052,428.05945970000175,428.0756374000048,428.0756374000048,428.0756374000048,428.1423272999964,428.52609470000607,,,,,,,,up,4.988560600002529,None,space,0.44827019999502227,None,,,,,,,,,,,,,,,P149,001,2025-04-11_10h19.18.764,posner_endo_new1,2024.2.4,60.04909613909894,2025-04-11 10h19.26.505003 +0100,
cube_r.png,0.1,10,catch,49,49,0,up,2.9642862000036985,None,None,,,,,,,0,49,49,49,,,,,428.5414296999952,,,,,,,,,,,,,428.5262723000051,428.5414296999952,428.5414296999952,428.5414296999952,431.50650699999824,,,,431.5123852999968,431.5245131999982,431.5245131999982,431.57228760000726,431.5725212999969,431.5887705000059,431.5887705000059,431.5887705000059,431.67194310000923,434.5861980000045,,,,433.68647780000174,434.60234389999823,434.60234389999823,434.60234389999823,up,2.9642862000036985,None,None,,,,,,,,,,,,,,,,,P149,001,2025-04-11_10h19.18.764,posner_endo_new1,2024.2.4,60.04909613909894,2025-04-11 10h19.26.505003 +0100,
cube_l.png,0.1,-0.31,valid,50,50,0,up,2.22318549999909,None,space,0.4275111999886576,None,,,,,0,50,50,50,,,,,434.60234389999823,,,,,,,,,,,,,434.5863653999986,434.60234389999823,434.60234389999823,434.60234389999823,436.83421369999996,,,,436.84009450000303,436.8516503999999,436.8516503999999,436.9001438999985,436.90038010000717,436.91664019999735,436.91664019999735,436.91664019999735,436.9997854999965,437.3503144999995,,,,,,,,up,2.22318549999909,None,space,0.4275111999886576,None,,,,,,,,,,,,,,,P149,001,2025-04-11_10h19.18.764,posner_endo_new1,2024.2.4,60.04909613909894,2025-04-11 10h19.26.505003 +0100,
cube_l.png,0.1,-0.31,valid,51,51,0,up,6.788107200001832,None,space,0.3706171999947401,None,,,,,0,51,51,51,,,,,437.3662330000079,,,,,,,,,,,,,437.3504937999969,437.3662330000079,437.3662330000079,437.3662330000079,444.15992710000137,,,,444.16588250000495,444.17740980000235,444.17740980000235,444.2259652000066,444.2261959000025,444.24251619999995,444.24251619999995,444.24251619999995,444.32563449999725,444.6262726999994,,,,,,,,up,6.788107200001832,None,space,0.3706171999947401,None,,,,,,,,,,,,,,,P149,001,2025-04-11_10h19.18.764,posner_endo_new1,2024.2.4,60.04909613909894,2025-04-11 10h19.26.505003 +0100,
cube_r.png,0.1,-0.31,invalid,52,52,0,up,6.432319800005644,None,space,0.40412419999483973,None,,,,,0,52,52,52,,,,,444.6418879999983,,,,,,,,,,,,,444.6264522999991,444.6418879999983,444.6418879999983,444.6418879999983,451.08617180000874,,,,451.09216100000776,451.103561099997,451.103561099997,451.15224979999766,451.152476999996,451.16862730000867,451.16862730000867,451.16862730000867,451.2352610000089,451.5856214000087,,,,,,,,up,6.432319800005644,None,space,0.40412419999483973,None,,,,,,,,,,,,,,,P149,001,2025-04-11_10h19.18.764,posner_endo_new1,2024.2.4,60.04909613909894,2025-04-11 10h19.26.505003 +0100,
cube_l.png,0.1,-0.31,valid,53,53,0,up,6.1767067999899155,None,space,0.35855309999897145,None,,,,,0,53,53,53,,,,,451.6016129000054,,,,,,,,,,,,,451.58579969999846,451.6016129000054,451.6016129000054,451.6016129000054,457.77951730000495,,,,457.7854748999962,457.79699630000687,457.79699630000687,457.84531530000095,457.8455535999965,457.8617402999953,457.8617402999953,457.8617402999953,457.9285019999952,458.22884209999756,,,,,,,,up,6.1767067999899155,None,space,0.35855309999897145,None,,,,,,,,,,,,,,,P149,001,2025-04-11_10h19.18.764,posner_endo_new1,2024.2.4,60.04909613909894,2025-04-11 10h19.26.505003 +0100,
cube_r.png,0.1,10,catch,54,54,0,up,5.365272299997741,None,None,,,,,,,0,54,54,54,,,,,458.2447436000075,,,,,,,,,,,,,458.2290262000024,458.2447436000075,458.2447436000075,458.2447436000075,463.6234972999955,,,,463.6294988000009,463.64102949999506,463.64102949999506,463.68921599999885,463.68944519999786,463.705449400004,463.705449400004,463.705449400004,463.7891851000022,466.70314399999916,,,,465.8035863999976,466.7193898999976,466.7193898999976,466.7193898999976,up,5.365272299997741,None,None,,,,,,,,,,,,,,,,,P149,001,2025-04-11_10h19.18.764,posner_endo_new1,2024.2.4,60.04909613909894,2025-04-11 10h19.26.505003 +0100,
cube_l.png,0.1,0.31,invalid,55,55,0,up,1.8262291999999434,None,space,0.37405509999371134,None,,,,,0,55,55,55,,,,,466.7193898999976,,,,,,,,,,,,,466.70331609999994,466.7193898999976,466.7193898999976,466.7193898999976,468.55165570000827,,,,468.557638600003,468.5691738000023,468.5691738000023,468.61766050000733,468.61789000000863,468.63412309999694,468.63412309999694,468.63412309999694,468.70058780000545,469.0178517000022,,,,,,,,up,1.8262291999999434,None,space,0.37405509999371134,None,,,,,,,,,,,,,,,P149,001,2025-04-11_10h19.18.764,posner_endo_new1,2024.2.4,60.04909613909894,2025-04-11 10h19.26.505003 +0100,
cube_l.png,0.1,-0.31,valid,56,56,0,up,6.728448399997433,None,space,0.36252980001154356,None,,,,,0,56,56,56,,,,,469.0337689000007,,,,,,,,,,,,,469.01802899999893,469.0337689000007,469.0337689000007,469.0337689000007,475.777700000006,,,,475.78372350000427,475.7954105999961,475.7954105999961,475.84357559999626,475.8438044000068,475.8601200999983,475.8601200999983,475.8601200999983,475.926813099999,476.22741239999596,,,,,,,,up,6.728448399997433,None,space,0.36252980001154356,None,,,,,,,,,,,,,,,P149,001,2025-04-11_10h19.18.764,posner_endo_new1,2024.2.4,60.04909613909894,2025-04-11 10h19.26.505003 +0100,
cube_r.png,0.1,0.31,valid,57,57,0,up,5.167279900007998,None,space,0.3947559999942314,None,,,,,0,57,57,57,,,,,476.2426806000003,,,,,,,,,,,,,476.2275939999963,476.2426806000003,476.2426806000003,476.2426806000003,481.42209690000163,,,,481.42804450000403,481.4395457000064,481.4395457000064,481.4878230000031,481.4880548000074,481.50426129999687,481.50426129999687,481.50426129999687,481.5875731999986,481.9050208999979,,,,,,,,up,5.167279900007998,None,space,0.3947559999942314,None,,,,,,,,,,,,,,,P149,001,2025-04-11_10h19.18.764,posner_endo_new1,2024.2.4,60.04909613909894,2025-04-11 10h19.26.505003 +0100,
cube_r.png,0.1,-0.31,invalid,58,58,0,up,8.529483799997251,None,space,0.4559692000038922,None,,,,,0,58,58,58,,,,,481.9207121000072,,,,,,,,,,,,,481.9051982999954,481.9207121000072,481.9207121000072,481.9207121000072,490.4624533000024,,,,490.4684166000079,490.4799578000093,490.4799578000093,490.52857880000374,490.52881210000487,490.5450225000095,490.5450225000095,490.5450225000095,490.61174680000113,491.0120353000093,,,,,,,,up,8.529483799997251,None,space,0.4559692000038922,None,,,,,,,,,,,,,,,P149,001,2025-04-11_10h19.18.764,posner_endo_new1,2024.2.4,60.04909613909894,2025-04-11 10h19.26.505003 +0100,
cube_l.png,0.1,0.31,invalid,59,59,0,up,4.085918099997798,None,space,0.4327996000065468,None,,,,,0,59,59,59,,,,,491.0279273000051,,,,,,,,,,,,,491.012215499999,491.0279273000051,491.0279273000051,491.0279273000051,495.1245118000079,,,,495.1304438000079,495.14219470000535,495.14219470000535,495.19047970000247,495.19073729999945,495.20697080000537,495.20697080000537,495.20697080000537,495.27360919999774,495.6407181999966,,,,,,,,up,4.085918099997798,None,space,0.4327996000065468,None,,,,,,,,,,,,,,,P149,001,2025-04-11_10h19.18.764,posner_endo_new1,2024.2.4,60.04909613909894,2025-04-11 10h19.26.505003 +0100,
,,,,,,,,,,,,,,,,,,,,,,,,,,,,,,,,,,,,,,,,,,,,,,,,,,,,,,,,,,,,,,,,,,,,,495.6408526000014,495.65650359999563,495.65650359999563,555.661689200002,557.8272149999975,space,62.154704100001254,None,,,,,,,P149,001,2025-04-11_10h19.18.764,posner_endo_new1,2024.2.4,60.04909613909894,2025-04-11 10h19.26.505003 +0100,
,,,,,,,,,,,,,,,,,,,,,,,,,,,,,,,,,,557.8272932999971,557.8428274000034,560.9187304000079,560.8236859000026,,,,,,,,,,,,,,,,,,,,,,,,,,,,,,,,,,,,,,,,,,,,,,P149,001,2025-04-11_10h19.18.764,posner_endo_new1,2024.2.4,60.04909613909894,2025-04-11 10h19.26.505003 +0100,
cube_l.png,0.1,10,catch,0,0,0,down,7.098901300007128,None,None,,,,,,,,,,,0,0,0,0,560.9187304000079,,,,,,,,,,,,,560.910453000004,560.9187304000079,560.9187304000079,560.9187304000079,568.0333383999969,,,,568.0394793000014,568.051026400004,568.051026400004,568.0993602999952,568.0995994999976,568.1156658999971,568.1156658999971,568.1156658999971,568.1989566999982,571.1131673000054,,,,570.2135262000083,571.1291071000014,571.1291071000014,571.1291071000014,,,,,,,,,,,,,,,down,7.098901300007128,None,None,,,P149,001,2025-04-11_10h19.18.764,posner_endo_new1,2024.2.4,60.04909613909894,2025-04-11 10h19.26.505003 +0100,
cube_l.png,0.1,10,catch,1,1,0,down,4.36077369999839,None,None,,,,,,,,,,,0,1,1,1,571.1291071000014,,,,,,,,,,,,,571.1133417000092,571.1291071000014,571.1291071000014,571.1291071000014,575.4923550999956,,,,575.4983457000053,575.5100329999987,575.5100329999987,575.5582439999998,575.5584762000071,575.5746983999998,575.5746983999998,575.5746983999998,575.657918500001,578.5721616000083,,,,577.6726096000057,578.5882478999993,578.5882478999993,578.5882478999993,,,,,,,,,,,,,,,down,4.36077369999839,None,None,,,P149,001,2025-04-11_10h19.18.764,posner_endo_new1,2024.2.4,60.04909613909894,2025-04-11 10h19.26.505003 +0100,
cube_l.png,0.1,0.31,invalid,2,2,0,down,4.9500380999961635,None,space,0.41621999999915715,None,,,,,,,,,0,2,2,2,578.5882478999993,,,,,,,,,,,,,578.5723349000036,578.5882478999993,578.5882478999993,578.5882478999993,583.5504367999965,,,,583.5564202999958,583.567895900007,583.567895900007,583.6165996000054,583.6168336999981,583.6331675999973,583.6331675999973,583.6331675999973,583.6996679000003,584.0503157000057,,,,,,,,,,,,,,,,,,,,,,down,4.9500380999961635,None,space,0.41621999999915715,None,P149,001,2025-04-11_10h19.18.764,posner_endo_new1,2024.2.4,60.04909613909894,2025-04-11 10h19.26.505003 +0100,
cube_l.png,0.1,0.31,invalid,3,3,0,down,7.335532400000375,None,space,0.3606971999979578,None,,,,,,,,,0,3,3,3,584.0659497000015,,,,,,,,,,,,,584.0505053000088,584.0659497000015,584.0659497000015,584.0659497000015,591.4093961000035,,,,591.4153636999981,591.4266177999962,591.4266177999962,591.4753395000007,591.4755698000081,591.4917409000045,591.4917409000045,591.4917409000045,591.5746646000043,591.858848799995,,,,,,,,,,,,,,,,,,,,,,down,7.335532400000375,None,space,0.3606971999979578,None,P149,001,2025-04-11_10h19.18.764,posner_endo_new1,2024.2.4,60.04909613909894,2025-04-11 10h19.26.505003 +0100,
cube_l.png,0.1,-0.31,valid,4,4,0,down,8.303083999999217,None,space,0.33988010000030044,None,,,,,,,,,0,4,4,4,591.8747126000089,,,,,,,,,,,,,591.8590292000008,591.8747126000089,591.8747126000089,591.8747126000089,600.1837531000056,,,,600.1896735000046,600.2011103999976,600.2011103999976,600.2495858000038,600.2498254999955,600.2662509000074,600.2662509000074,600.2662509000074,600.3327747000003,600.616657400009,,,,,,,,,,,,,,,,,,,,,,down,8.303083999999217,None,space,0.33988010000030044,None,P149,001,2025-04-11_10h19.18.764,posner_endo_new1,2024.2.4,60.04909613909894,2025-04-11 10h19.26.505003 +0100,
cube_r.png,0.1,-0.31,invalid,5,5,0,down,3.001650599995628,None,space,0.4633437999873422,None,,,,,,,,,0,5,5,5,600.6320869000047,,,,,,,,,,,,,600.6168429999962,600.6320869000047,600.6320869000047,600.6320869000047,603.6465395999985,,,,603.6524977000081,603.664047600003,603.664047600003,603.7126983000053,603.7129344999994,603.7293883000093,603.7293883000093,603.7293883000093,603.7957972000004,604.1963407000003,,,,,,,,,,,,,,,,,,,,,,down,3.001650599995628,None,space,0.4633437999873422,None,P149,001,2025-04-11_10h19.18.764,posner_endo_new1,2024.2.4,60.04909613909894,2025-04-11 10h19.26.505003 +0100,
cube_r.png,0.1,0.31,valid,6,6,0,down,7.102023499988718,None,space,0.40807069999573287,None,,,,,,,,,0,6,6,6,604.2118018000037,,,,,,,,,,,,,604.1965268000058,604.2118018000037,604.2118018000037,604.2118018000037,611.3221801000036,,,,611.3281665999966,611.3397025000013,611.3397025000013,611.3883135000069,611.3885473999981,611.4047591999988,611.4047591999988,611.4047591999988,611.470814100001,611.8216610999953,,,,,,,,,,,,,,,,,,,,,,down,7.102023499988718,None,space,0.40807069999573287,None,P149,001,2025-04-11_10h19.18.764,posner_endo_new1,2024.2.4,60.04909613909894,2025-04-11 10h19.26.505003 +0100,
cube_r.png,0.1,-0.31,invalid,7,7,0,down,8.052585500001442,None,space,0.43762680000509135,None,,,,,,,,,0,7,7,7,611.8372697000013,,,,,,,,,,,,,611.8218542999966,611.8372697000013,611.8372697000013,611.8372697000013,619.8967406000011,,,,619.9026429000078,619.9145566000079,619.9145566000079,619.9627332000091,619.9629665999964,619.9792965000088,619.9792965000088,619.9792965000088,620.045966500009,620.4295996000001,,,,,,,,,,,,,,,,,,,,,,down,8.052585500001442,None,space,0.43762680000509135,None,P149,001,2025-04-11_10h19.18.764,posner_endo_new1,2024.2.4,60.04909613909894,2025-04-11 10h19.26.505003 +0100,
cube_l.png,0.1,-0.31,valid,8,8,0,down,7.180719700001646,None,space,0.363213500007987,None,,,,,,,,,0,8,8,8,620.4454108000064,,,,,,,,,,,,,620.4297856000048,620.4454108000064,620.4454108000064,620.4454108000064,627.6388357999967,,,,627.6449780999974,627.6564766000083,627.6564766000083,627.7047738999972,627.7050123000081,627.7212646999978,627.7212646999978,627.7212646999978,627.8042870000063,628.088563199999,,,,,,,,,,,,,,,,,,,,,,down,7.180719700001646,None,space,0.363213500007987,None,P149,001,2025-04-11_10h19.18.764,posner_endo_new1,2024.2.4,60.04909613909894,2025-04-11 10h19.26.505003 +0100,
cube_r.png,0.1,-0.31,invalid,9,9,0,down,5.9547323000006145,None,space,0.3852869999973336,None,,,,,,,,,0,9,9,9,628.1044210999971,,,,,,,,,,,,,628.0887475000054,628.1044210999971,628.1044210999971,628.1044210999971,634.0658924000018,,,,634.0718868999975,634.0835004999972,634.0835004999972,634.1314825000009,634.1317164000066,634.1478333999985,634.1478333999985,634.1478333999985,634.2314964999969,634.548452700008,,,,,,,,,,,,,,,,,,,,,,down,5.9547323000006145,None,space,0.3852869999973336,None,P149,001,2025-04-11_10h19.18.764,posner_endo_new1,2024.2.4,60.04909613909894,2025-04-11 10h19.26.505003 +0100,
cube_l.png,0.1,0.31,invalid,10,10,0,down,3.4778572999930475,None,space,0.33393019999493845,None,,,,,,,,,0,10,10,10,634.5639679000014,,,,,,,,,,,,,634.5486386999983,634.5639679000014,634.5639679000014,634.5639679000014,638.0450584000064,,,,638.0509950999985,638.0626393999992,638.0626393999992,638.1107673000079,638.111000799996,638.1274638000032,638.1274638000032,638.1274638000032,638.2108614000026,638.477841800006,,,,,,,,,,,,,,,,,,,,,,down,3.4778572999930475,None,space,0.33393019999493845,None,P149,001,2025-04-11_10h19.18.764,posner_endo_new1,2024.2.4,60.04909613909894,2025-04-11 10h19.26.505003 +0100,
cube_r.png,0.1,-0.31,invalid,11,11,0,down,5.916532899995218,None,space,0.3074886999966111,None,,,,,,,,,0,11,11,11,638.4936970999988,,,,,,,,,,,,,638.4780257000093,638.4936970999988,638.4936970999988,638.4936970999988,644.4212932000082,,,,644.4272467999981,644.4387920000008,644.4387920000008,644.4875298999978,644.487764000005,644.5041395000007,644.5041395000007,644.5041395000007,644.5702726000018,644.8214661999955,,,,,,,,,,,,,,,,,,,,,,down,5.916532899995218,None,space,0.3074886999966111,None,P149,001,2025-04-11_10h19.18.764,posner_endo_new1,2024.2.4,60.04909613909894,2025-04-11 10h19.26.505003 +0100,
cube_r.png,0.1,0.31,valid,12,12,0,down,3.149356900001294,None,space,0.36826839999412186,None,,,,,,,,,0,12,12,12,644.8368443000072,,,,,,,,,,,,,644.8216503000003,644.8368443000072,644.8368443000072,644.8368443000072,648.0011319000041,,,,648.0070675000024,648.0185887999978,648.0185887999978,648.0672847999958,648.0675170000031,648.0839668999979,648.0839668999979,648.0839668999979,648.1505907999963,648.4674718000024,,,,,,,,,,,,,,,,,,,,,,down,3.149356900001294,None,space,0.36826839999412186,None,P149,001,2025-04-11_10h19.18.764,posner_endo_new1,2024.2.4,60.04909613909894,2025-04-11 10h19.26.505003 +0100,
cube_l.png,0.1,10,catch,13,13,0,down,6.102442499992321,None,None,,,,,,,,,,,0,13,13,13,648.4834345999989,,,,,,,,,,,,,648.4676559000072,648.4834345999989,648.4834345999989,648.4834345999989,654.5947180000076,,,,654.6007169000077,654.6122724000015,654.6122724000015,654.6605543000042,654.6607903999975,654.6770370000013,654.6770370000013,654.6770370000013,654.7437812999997,657.6747035000008,,,,656.7583262999979,657.6907118999952,657.6907118999952,657.6907118999952,,,,,,,,,,,,,,,down,6.102442499992321,None,None,,,P149,001,2025-04-11_10h19.18.764,posner_endo_new1,2024.2.4,60.04909613909894,2025-04-11 10h19.26.505003 +0100,
cube_r.png,0.1,-0.31,invalid,14,14,0,down,4.240619300006074,None,space,0.4046634999976959,None,,,,,,,,,0,14,14,14,657.6907118999952,,,,,,,,,,,,,657.6748840000073,657.6907118999952,657.6907118999952,657.6907118999952,661.9372295000067,,,,661.9432084,661.9548397000035,661.9548397000035,662.0032872000011,662.0035188000038,662.0195475000073,662.0195475000073,662.0195475000073,662.1026848000038,662.4366191000008,,,,,,,,,,,,,,,,,,,,,,down,4.240619300006074,None,space,0.4046634999976959,None,P149,001,2025-04-11_10h19.18.764,posner_endo_new1,2024.2.4,60.04909613909894,2025-04-11 10h19.26.505003 +0100,
cube_l.png,0.1,-0.31,valid,15,15,0,down,5.0772736000071745,None,space,0.3774799999955576,None,,,,,,,,,0,15,15,15,662.4524033000052,,,,,,,,,,,,,662.4368025000003,662.4524033000052,662.4524033000052,662.4524033000052,667.5315628999961,,,,667.5374416999985,667.5489317000029,667.5489317000029,667.5974535999994,667.5976858000067,667.6139209999965,667.6139209999965,667.6139209999965,667.6968078000064,667.9973306000029,,,,,,,,,,,,,,,,,,,,,,down,5.0772736000071745,None,space,0.3774799999955576,None,P149,001,2025-04-11_10h19.18.764,posner_endo_new1,2024.2.4,60.04909613909894,2025-04-11 10h19.26.505003 +0100,
cube_r.png,0.1,10,catch,16,16,0,down,4.180629400012549,None,None,,,,,,,,,,,0,16,16,16,668.0134691999992,,,,,,,,,,,,,667.9975187999953,668.0134691999992,668.0134691999992,668.0134691999992,672.2099554000015,,,,672.2159384999977,672.2275056000071,672.2275056000071,672.2753714999999,672.2756039000087,672.2925085000024,672.2925085000024,672.2925085000024,672.3590832000045,675.2898425000021,,,,674.3736244000029,675.3060620000033,675.3060620000033,675.3060620000033,,,,,,,,,,,,,,,down,4.180629400012549,None,None,,,P149,001,2025-04-11_10h19.18.764,posner_endo_new1,2024.2.4,60.04909613909894,2025-04-11 10h19.26.505003 +0100,
cube_r.png,0.1,10,catch,17,17,0,down,5.6400604999944335,None,None,,,,,,,,,,,0,17,17,17,675.3060620000033,,,,,,,,,,,,,675.2900197999988,675.3060620000033,675.3060620000033,675.3060620000033,680.9511589000031,,,,680.9570317000034,680.9685775999969,680.9685775999969,681.0169533000008,681.0171877999965,681.0335942000092,681.0335942000092,681.0335942000092,681.1167096999998,684.0309855000087,,,,683.1309968999994,684.0471103000018,684.0471103000018,684.0471103000018,,,,,,,,,,,,,,,down,5.6400604999944335,None,None,,,P149,001,2025-04-11_10h19.18.764,posner_endo_new1,2024.2.4,60.04909613909894,2025-04-11 10h19.26.505003 +0100,
cube_l.png,0.1,0.31,invalid,18,18,0,down,2.2993407000030857,None,space,0.357050699996762,None,,,,,,,,,0,18,18,18,684.0471103000018,,,,,,,,,,,,,684.0311715999997,684.0471103000018,684.0471103000018,684.0471103000018,686.362051300006,,,,686.3679976999993,686.3796006000048,686.3796006000048,686.4281082999951,686.4283424000023,686.444719200008,686.444719200008,686.444719200008,686.5111725000024,686.8116934999998,,,,,,,,,,,,,,,,,,,,,,down,2.2993407000030857,None,space,0.357050699996762,None,P149,001,2025-04-11_10h19.18.764,posner_endo_new1,2024.2.4,60.04909613909894,2025-04-11 10h19.26.505003 +0100,
cube_l.png,0.1,10,catch,19,19,0,down,7.862477199989371,None,None,,,,,,,,,,,0,19,19,19,686.8274725000083,,,,,,,,,,,,,686.8118776000047,686.8274725000083,686.8274725000083,686.8274725000083,694.7036603000015,,,,694.7096282999992,694.721117299996,694.721117299996,694.7694183999993,694.7696503000043,694.7860598999978,694.7860598999978,694.7860598999978,694.8693423000077,697.7836072000064,,,,696.8839204999967,697.7996360999969,697.7996360999969,697.7996360999969,,,,,,,,,,,,,,,down,7.862477199989371,None,None,,,P149,001,2025-04-11_10h19.18.764,posner_endo_new1,2024.2.4,60.04909613909894,2025-04-11 10h19.26.505003 +0100,
cube_l.png,0.1,0.31,invalid,20,20,0,down,1.5700208999915048,None,space,0.3694905000011204,None,,,,,,,,,0,20,20,20,697.7996360999969,,,,,,,,,,,,,697.7837815999956,697.7996360999969,697.7996360999969,697.7996360999969,699.3821484000073,,,,699.388217700005,699.3997843999969,699.3997843999969,699.447982800004,699.4482175000012,699.464691000001,699.464691000001,699.464691000001,699.5480540999997,699.8484301999997,,,,,,,,,,,,,,,,,,,,,,down,1.5700208999915048,None,space,0.3694905000011204,None,P149,001,2025-04-11_10h19.18.764,posner_endo_new1,2024.2.4,60.04909613909894,2025-04-11 10h19.26.505003 +0100,
cube_l.png,0.1,-0.31,valid,21,21,0,down,5.953321499997401,None,space,0.390858600003412,None,,,,,,,,,0,21,21,21,699.8642509000056,,,,,,,,,,,,,699.8486201000051,699.8642509000056,699.8642509000056,699.8642509000056,705.8256175999995,,,,705.8316245000024,705.8431416999956,705.8431416999956,705.8913406000065,705.8915822999988,705.9079675999965,705.9079675999965,705.9079675999965,705.9912813999981,706.3082834000088,,,,,,,,,,,,,,,,,,,,,,down,5.953321499997401,None,space,0.390858600003412,None,P149,001,2025-04-11_10h19.18.764,posner_endo_new1,2024.2.4,60.04909613909894,2025-04-11 10h19.26.505003 +0100,
cube_r.png,0.1,0.31,valid,22,22,0,down,11.326125699997647,None,space,0.34637100000691134,None,,,,,,,,,0,22,22,22,706.324254200008,,,,,,,,,,,,,706.3084667000076,706.324254200008,706.324254200008,706.324254200008,717.6637969000003,,,,717.6739713999996,717.6836458000034,717.6836458000034,717.7294284999953,717.7296762000042,717.7456907000014,717.7456907000014,717.7456907000014,717.8291697999957,718.0965978000022,,,,,,,,,,,,,,,,,,,,,,down,11.326125699997647,None,space,0.34637100000691134,None,P149,001,2025-04-11_10h19.18.764,posner_endo_new1,2024.2.4,60.04909613909894,2025-04-11 10h19.26.505003 +0100,
cube_r.png,0.1,-0.31,invalid,23,23,0,down,4.713914399995701,None,space,0.45321310000144877,None,,,,,,,,,0,23,23,23,718.1120460000093,,,,,,,,,,,,,718.0967950000049,718.1120460000093,718.1120460000093,718.1120460000093,722.8414793999982,,,,722.8475190000026,722.8589407999971,722.8589407999971,722.9072648000001,722.907701700009,722.9236963000003,722.9236963000003,722.9236963000003,723.0069321000046,723.3914733999991,,,,,,,,,,,,,,,,,,,,,,down,4.713914399995701,None,space,0.45321310000144877,None,P149,001,2025-04-11_10h19.18.764,posner_endo_new1,2024.2.4,60.04909613909894,2025-04-11 10h19.26.505003 +0100,
cube_r.png,0.1,0.31,valid,24,24,0,down,8.371840399995563,None,space,0.3914796000026399,None,,,,,,,,,0,24,24,24,723.4065285999968,,,,,,,,,,,,,723.3918686999968,723.4065285999968,723.4065285999968,723.4065285999968,731.7826797000016,,,,731.7921485999977,731.8023171000095,731.8023171000095,731.8483318000071,731.8486398999958,731.8647720000008,731.8647720000008,731.8647720000008,731.9481099999975,732.2653503000038,,,,,,,,,,,,,,,,,,,,,,down,8.371840399995563,None,space,0.3914796000026399,None,P149,001,2025-04-11_10h19.18.764,posner_endo_new1,2024.2.4,60.04909613909894,2025-04-11 10h19.26.505003 +0100,
cube_r.png,0.1,-0.31,invalid,25,25,0,down,4.704998200002592,None,space,0.3656965999980457,None,,,,,,,,,0,25,25,25,732.2810047000094,,,,,,,,,,,,,732.2656156000012,732.2810047000094,732.2810047000094,732.2810047000094,736.9940329999954,,,,737.0035311999964,737.0136263000022,737.0136263000022,737.0596170000063,737.059932899996,737.0760793000081,737.0760793000081,737.0760793000081,737.1595157999982,737.4436462000012,,,,,,,,,,,,,,,,,,,,,,down,4.704998200002592,None,space,0.3656965999980457,None,P149,001,2025-04-11_10h19.18.764,posner_endo_new1,2024.2.4,60.04909613909894,2025-04-11 10h19.26.505003 +0100,
cube_l.png,0.1,-0.31,valid,26,26,0,down,3.5826837999920826,None,space,0.34483390000241343,None,,,,,,,,,0,26,26,26,737.459082100002,,,,,,,,,,,,,737.4439162000053,737.459082100002,737.459082100002,737.459082100002,741.0566091000073,,,,741.0660517000069,741.0761790999968,741.0761790999968,741.1222010000056,741.1225105000049,741.1386673000088,741.1386673000088,741.1386673000088,741.2219059000054,741.4896656000055,,,,,,,,,,,,,,,,,,,,,,down,3.5826837999920826,None,space,0.34483390000241343,None,P149,001,2025-04-11_10h19.18.764,posner_endo_new1,2024.2.4,60.04909613909894,2025-04-11 10h19.26.505003 +0100,
cube_r.png,0.1,0.31,valid,27,27,0,down,2.0325657000066712,None,space,0.373056299999007,None,,,,,,,,,0,27,27,27,741.5050403000059,,,,,,,,,,,,,741.4899319999968,741.5050403000059,741.5050403000059,741.5050403000059,743.5539531999966,,,,743.5630294000002,743.5724969000003,743.5724969000003,743.6197829000012,743.620015499997,743.636276300007,743.636276300007,743.636276300007,743.7191781000001,744.0200031999993,,,,,,,,,,,,,,,,,,,,,,down,2.0325657000066712,None,space,0.373056299999007,None,P149,001,2025-04-11_10h19.18.764,posner_endo_new1,2024.2.4,60.04909613909894,2025-04-11 10h19.26.505003 +0100,
cube_r.png,0.1,10,catch,28,28,0,down,4.270513800001936,None,None,,,,,,,,,,,0,28,28,28,744.0357719000021,,,,,,,,,,,,,744.0201849000005,744.0357719000021,744.0357719000021,744.0357719000021,748.315133199998,,,,748.3213986000046,748.3329717000015,748.3329717000015,748.3813556000096,748.3815849000093,748.3979241000052,748.3979241000052,748.3979241000052,748.464596699996,751.3960568000039,,,,750.4790530000028,751.4114726999978,751.4114726999978,751.4114726999978,,,,,,,,,,,,,,,down,4.270513800001936,None,None,,,P149,001,2025-04-11_10h19.18.764,posner_endo_new1,2024.2.4,60.04909613909894,2025-04-11 10h19.26.505003 +0100,
cube_r.png,0.1,0.31,valid,29,29,0,down,4.99078659999941,None,space,0.4145728000003146,None,,,,,,,,,0,29,29,29,751.4114726999978,,,,,,,,,,,,,751.3965311000065,751.4114726999978,751.4114726999978,751.4114726999978,756.4074606000067,,,,756.418660700001,756.428879500003,756.428879500003,756.472975800003,756.4733321000094,756.489436799995,756.489436799995,756.489436799995,756.5727165999997,756.907105300008,,,,,,,,,,,,,,,,,,,,,,down,4.99078659999941,None,space,0.4145728000003146,None,P149,001,2025-04-11_10h19.18.764,posner_endo_new1,2024.2.4,60.04909613909894,2025-04-11 10h19.26.505003 +0100,
cube_r.png,0.1,0.31,valid,30,30,0,down,6.776120899987291,None,space,0.3692129999981262,None,,,,,,,,,0,30,30,30,756.9223430999991,,,,,,,,,,,,,756.9074084000022,756.9223430999991,756.9223430999991,756.9223430999991,763.7000894000084,,,,763.7112800000032,763.7214400000084,763.7214400000084,763.7655599999998,763.7659100000019,763.7819940000045,763.7819940000045,763.7819940000045,763.8652199000062,764.1662608000042,,,,,,,,,,,,,,,,,,,,,,down,6.776120899987291,None,space,0.3692129999981262,None,P149,001,2025-04-11_10h19.18.764,posner_endo_new1,2024.2.4,60.04909613909894,2025-04-11 10h19.26.505003 +0100,
cube_l.png,0.1,-0.31,valid,31,31,0,down,5.260651599994162,None,space,0.33637479999742936,None,,,,,,,,,0,31,31,31,764.1816548000061,,,,,,,,,,,,,764.1665657999984,764.1816548000061,764.1816548000061,764.1816548000061,769.4444852000015,,,,769.4545156000095,769.4641621000046,769.4641621000046,769.5097173999966,769.5099644000002,769.5262329999969,769.5262329999969,769.5262329999969,769.609486500005,769.8768452000077,,,,,,,,,,,,,,,,,,,,,,down,5.260651599994162,None,space,0.33637479999742936,None,P149,001,2025-04-11_10h19.18.764,posner_endo_new1,2024.2.4,60.04909613909894,2025-04-11 10h19.26.505003 +0100,
cube_r.png,0.1,0.31,valid,32,32,0,down,9.581826800000272,None,space,0.34558529999048915,None,,,,,,,,,0,32,32,32,769.8925165999972,,,,,,,,,,,,,769.8770593000081,769.8925165999972,769.8925165999972,769.8925165999972,779.4835725000012,,,,779.4903931000008,779.5020569000044,779.5020569000044,779.5494278999977,779.5496734000044,779.5659964000079,779.5659964000079,779.5659964000079,779.6322189000057,779.9167462000041,,,,,,,,,,,,,,,,,,,,,,down,9.581826800000272,None,space,0.34558529999048915,None,P149,001,2025-04-11_10h19.18.764,posner_endo_new1,2024.2.4,60.04909613909894,2025-04-11 10h19.26.505003 +0100,
cube_r.png,0.1,-0.31,invalid,33,33,0,down,5.19765400000324,None,space,0.4530474999919534,None,,,,,,,,,0,33,33,33,779.9323783,,,,,,,,,,,,,779.9169468000036,779.9323783,779.9323783,779.9323783,785.1444573000044,,,,785.1513130000094,785.162886200007,785.162886200007,785.2104687999963,785.2107152999961,785.2265595000063,785.2265595000063,785.2265595000063,785.2933151000034,785.6938964000001,,,,,,,,,,,,,,,,,,,,,,down,5.19765400000324,None,space,0.4530474999919534,None,P149,001,2025-04-11_10h19.18.764,posner_endo_new1,2024.2.4,60.04909613909894,2025-04-11 10h19.26.505003 +0100,
cube_r.png,0.1,10,catch,34,34,0,down,6.2285915999964345,None,None,,,,,,,,,,,0,34,34,34,785.7093670000031,,,,,,,,,,,,,785.6940948999982,785.7093670000031,785.7093670000031,785.7093670000031,791.9539136000094,,,,791.9607028000028,791.9722956000041,791.9722956000041,792.0200235000084,792.020271500005,792.0366470000008,792.0366470000008,792.0366470000008,792.1028324000072,795.0339395000046,,,,794.1177588999999,795.049835400001,795.049835400001,795.049835400001,,,,,,,,,,,,,,,down,6.2285915999964345,None,None,,,P149,001,2025-04-11_10h19.18.764,posner_endo_new1,2024.2.4,60.04909613909894,2025-04-11 10h19.26.505003 +0100,
cube_r.png,0.1,0.31,valid,35,35,0,down,6.11192630000005,None,space,0.39429609999933746,None,,,,,,,,,0,35,35,35,795.049835400001,,,,,,,,,,,,,795.0341243000003,795.049835400001,795.049835400001,795.049835400001,801.1779945000017,,,,801.1848334999959,801.1964656000055,801.1964656000055,801.2439698000089,801.2442265999998,801.2603765000094,801.2603765000094,801.2603765000094,801.343701100006,801.6607802000071,,,,,,,,,,,,,,,,,,,,,,down,6.11192630000005,None,space,0.39429609999933746,None,P149,001,2025-04-11_10h19.18.764,posner_endo_new1,2024.2.4,60.04909613909894,2025-04-11 10h19.26.505003 +0100,
cube_r.png,0.1,-0.31,invalid,36,36,0,down,4.157316199998604,None,space,0.3817724999971688,None,,,,,,,,,0,36,36,36,801.6767158000002,,,,,,,,,,,,,801.6609776999976,801.6767158000002,801.6767158000002,801.6767158000002,805.8395782000007,,,,805.8463481000072,805.8584025000018,805.8584025000018,805.905857699996,805.9061020000081,805.9223226000031,805.9223226000031,805.9223226000031,805.9890226999996,806.3059463999962,,,,,,,,,,,,,,,,,,,,,,down,4.157316199998604,None,space,0.3817724999971688,None,P149,001,2025-04-11_10h19.18.764,posner_endo_new1,2024.2.4,60.04909613909894,2025-04-11 10h19.26.505003 +0100,
cube_l.png,0.1,0.31,invalid,37,37,0,down,4.832359000007273,None,space,0.374651799997082,None,,,,,,,,,0,37,37,37,806.3219715000014,,,,,,,,,,,,,806.3061489999964,806.3219715000014,806.3219715000014,806.3219715000014,811.1678313000011,,,,811.1746055999974,811.1862211999978,811.1862211999978,811.2337764999975,811.2340236000018,811.2501722000015,811.2501722000015,811.2501722000015,811.3335512000049,811.6340208000038,,,,,,,,,,,,,,,,,,,,,,down,4.832359000007273,None,space,0.374651799997082,None,P149,001,2025-04-11_10h19.18.764,posner_endo_new1,2024.2.4,60.04909613909894,2025-04-11 10h19.26.505003 +0100,
cube_l.png,0.1,0.31,invalid,38,38,0,down,6.543866100008017,None,space,0.3441845000052126,None,,,,,,,,,0,38,38,38,811.649857299999,,,,,,,,,,,,,811.6342193000019,811.649857299999,811.649857299999,811.649857299999,818.2107322000084,,,,818.2175289000006,818.2289433999977,818.2289433999977,818.2765493000043,818.2767950999987,818.2929917000001,818.2929917000001,818.2929917000001,818.3762474999967,818.6434504000063,,,,,,,,,,,,,,,,,,,,,,down,6.543866100008017,None,space,0.3441845000052126,None,P149,001,2025-04-11_10h19.18.764,posner_endo_new1,2024.2.4,60.04909613909894,2025-04-11 10h19.26.505003 +0100,
cube_r.png,0.1,0.31,valid,39,39,0,down,7.575064000004204,None,space,0.38930499998969026,None,,,,,,,,,0,39,39,39,818.6593395999953,,,,,,,,,,,,,818.6436503000004,818.6593395999953,818.6593395999953,818.6593395999953,826.2358113000082,,,,826.242710400009,826.2543619000062,826.2543619000062,826.3012390000076,826.3014846000005,826.318225199997,826.318225199997,826.318225199997,826.4015464999975,826.7186140999984,,,,,,,,,,,,,,,,,,,,,,down,7.575064000004204,None,space,0.38930499998969026,None,P149,001,2025-04-11_10h19.18.764,posner_endo_new1,2024.2.4,60.04909613909894,2025-04-11 10h19.26.505003 +0100,
cube_l.png,0.1,0.31,invalid,40,40,0,down,7.211818399999174,None,space,0.32036639998841565,None,,,,,,,,,0,40,40,40,826.7344902000041,,,,,,,,,,,,,826.7188120000064,826.7344902000041,826.7344902000041,826.7344902000041,833.9610567000054,,,,833.9679233000061,833.979696800001,833.979696800001,834.0270119000052,834.0272579000011,834.0431863999984,834.0431863999984,834.0431863999984,834.1098895000032,834.3774483000016,,,,,,,,,,,,,,,,,,,,,,down,7.211818399999174,None,space,0.32036639998841565,None,P149,001,2025-04-11_10h19.18.764,posner_endo_new1,2024.2.4,60.04909613909894,2025-04-11 10h19.26.505003 +0100,
cube_l.png,0.1,10,catch,41,41,0,down,6.841084200001205,None,None,,,,,,,,,,,0,41,41,41,834.3927866000013,,,,,,,,,,,,,834.3776520999963,834.3927866000013,834.3927866000013,834.3927866000013,841.2371070000081,,,,841.2439640000084,841.2555254000035,841.2555254000035,841.3030512999976,841.3033094999992,841.3194719000021,841.3194719000021,841.3194719000021,841.3861991000012,844.3169071000011,,,,843.4005752000085,844.3329838000063,844.3329838000063,844.3329838000063,,,,,,,,,,,,,,,down,6.841084200001205,None,None,,,P149,001,2025-04-11_10h19.18.764,posner_endo_new1,2024.2.4,60.04909613909894,2025-04-11 10h19.26.505003 +0100,
cube_l.png,0.1,-0.31,valid,42,42,0,down,5.997010000006412,None,space,0.42186459999356885,None,,,,,,,,,0,42,42,42,844.3329838000063,,,,,,,,,,,,,844.3170970000065,844.3329838000063,844.3329838000063,844.3329838000063,850.3452671999985,,,,850.361513900003,850.3718241000024,850.3718241000024,850.4103071999998,850.4106535000028,850.4267441999982,850.4267441999982,850.4267441999982,850.5099689000053,850.8608432000037,,,,,,,,,,,,,,,,,,,,,,down,5.997010000006412,None,space,0.42186459999356885,None,P149,001,2025-04-11_10h19.18.764,posner_endo_new1,2024.2.4,60.04909613909894,2025-04-11 10h19.26.505003 +0100,
cube_l.png,0.1,10,catch,43,43,0,down,3.6701911999989534,None,None,,,,,,,,,,,0,43,43,43,850.8763070999994,,,,,,,,,,,,,850.8611481999978,850.8763070999994,850.8763070999994,850.8763070999994,854.5570227999997,,,,854.5656526000093,854.575533700001,854.575533700001,854.6226658000087,854.6229134000023,854.6391659000074,854.6391659000074,854.6391659000074,854.7225405000063,857.6367528999981,,,,856.7367200000008,857.6527138000092,857.6527138000092,857.6527138000092,,,,,,,,,,,,,,,down,3.6701911999989534,None,None,,,P149,001,2025-04-11_10h19.18.764,posner_endo_new1,2024.2.4,60.04909613909894,2025-04-11 10h19.26.505003 +0100,
cube_l.png,0.1,0.31,invalid,44,44,0,down,1.18913959999918,None,space,0.7432478999980958,None,,,,,,,,,0,44,44,44,857.6527138000092,,,,,,,,,,,,,857.6369432000065,857.6527138000092,857.6527138000092,857.6527138000092,858.8523159000033,,,,858.8591985999956,858.870812299996,858.870812299996,858.9183112000028,858.918565400003,858.9344438999979,858.9344438999979,858.9344438999979,859.0010677999962,859.6849692999967,,,,,,,,,,,,,,,,,,,,,,down,1.18913959999918,None,space,0.7432478999980958,None,P149,001,2025-04-11_10h19.18.764,posner_endo_new1,2024.2.4,60.04909613909894,2025-04-11 10h19.26.505003 +0100,
cube_l.png,0.1,0.31,invalid,45,45,0,down,4.717241200007265,None,space,0.5140724999946542,None,,,,,,,,,0,45,45,45,859.7006983000028,,,,,,,,,,,,,859.6851753000083,859.7006983000028,859.7006983000028,859.7006983000028,864.4300522999984,,,,864.4369013999967,864.4485338000086,864.4485338000086,864.4957123000058,864.4959569000057,864.5124278000003,864.5124278000003,864.5124278000003,864.5956555000012,865.0294583000068,,,,,,,,,,,,,,,,,,,,,,down,4.717241200007265,None,space,0.5140724999946542,None,P149,001,2025-04-11_10h19.18.764,posner_endo_new1,2024.2.4,60.04909613909894,2025-04-11 10h19.26.505003 +0100,
cube_r.png,0.1,0.31,valid,46,46,0,down,5.149554799994803,None,space,0.5146499999973457,None,,,,,,,,,0,46,46,46,865.0448805000051,,,,,,,,,,,,,865.0296551000065,865.0448805000051,865.0448805000051,865.0448805000051,870.2073900999967,,,,870.214217700006,870.2258352000063,870.2258352000063,870.2732233999996,870.2734674999956,870.2894527000026,870.2894527000026,870.2894527000026,870.3729905000073,870.806837199998,,,,,,,,,,,,,,,,,,,,,,down,5.149554799994803,None,space,0.5146499999973457,None,P149,001,2025-04-11_10h19.18.764,posner_endo_new1,2024.2.4,60.04909613909894,2025-04-11 10h19.26.505003 +0100,
cube_l.png,0.1,-0.31,valid,47,47,0,down,2.523670399998082,None,space,0.5230271999898832,None,,,,,,,,,0,47,47,47,870.8226403000008,,,,,,,,,,,,,870.8070398999989,870.8226403000008,870.8226403000008,870.8226403000008,873.3541795000056,,,,873.3609348000027,873.3726157000056,873.3726157000056,873.420180000001,873.4204241999978,873.4365938999981,873.4365938999981,873.4365938999981,873.5032344000065,873.9702139000001,,,,,,,,,,,,,,,,,,,,,,down,2.523670399998082,None,space,0.5230271999898832,None,P149,001,2025-04-11_10h19.18.764,posner_endo_new1,2024.2.4,60.04909613909894,2025-04-11 10h19.26.505003 +0100,
cube_r.png,0.1,-0.31,invalid,48,48,0,down,7.711940099994536,None,space,0.5704903000005288,None,,,,,,,,,0,48,48,48,873.9861416000058,,,,,,,,,,,,,873.970424900006,873.9861416000058,873.9861416000058,873.9861416000058,881.7123939000012,,,,881.7192064999981,881.7308151000034,881.7308151000034,881.7778824999987,881.7781290999992,881.7947421999997,881.7947421999997,881.7947421999997,881.8779690000083,882.3783027000027,,,,,,,,,,,,,,,,,,,,,,down,7.711940099994536,None,space,0.5704903000005288,None,P149,001,2025-04-11_10h19.18.764,posner_endo_new1,2024.2.4,60.04909613909894,2025-04-11 10h19.26.505003 +0100,
cube_r.png,0.1,10,catch,49,49,0,down,3.5124181999999564,None,None,,,,,,,,,,,0,49,49,49,882.3937002000021,,,,,,,,,,,,,882.3785007999977,882.3937002000021,882.3937002000021,882.3937002000021,885.9080603000039,,,,885.9148317000072,885.9264734000026,885.9264734000026,885.9738369999977,885.9740798999992,885.9901184000046,885.9901184000046,885.9901184000046,886.0736005000072,888.9877120000019,,,,888.0882198000036,889.0040126999957,889.0040126999957,889.0040126999957,,,,,,,,,,,,,,,down,3.5124181999999564,None,None,,,P149,001,2025-04-11_10h19.18.764,posner_endo_new1,2024.2.4,60.04909613909894,2025-04-11 10h19.26.505003 +0100,
cube_l.png,0.1,-0.31,valid,50,50,0,down,3.3499669000011636,None,space,0.39268419999280013,None,,,,,,,,,0,50,50,50,889.0040126999957,,,,,,,,,,,,,888.9879021000088,889.0040126999957,889.0040126999957,889.0040126999957,892.3681407999975,,,,892.3749268999964,892.3864854999993,892.3864854999993,892.4339780000009,892.4342229000031,892.450611799999,892.450611799999,892.450611799999,892.5169631000026,892.8509594000061,,,,,,,,,,,,,,,,,,,,,,down,3.3499669000011636,None,space,0.39268419999280013,None,P149,001,2025-04-11_10h19.18.764,posner_endo_new1,2024.2.4,60.04909613909894,2025-04-11 10h19.26.505003 +0100,
cube_l.png,0.1,-0.31,valid,51,51,0,down,4.439657199996873,None,space,0.31784499999776017,None,,,,,,,,,0,51,51,51,892.8666702000046,,,,,,,,,,,,,892.8511629999994,892.8666702000046,892.8666702000046,892.8666702000046,897.3137676000042,,,,897.3276569000009,897.3381539999973,897.3381539999973,897.3789690999984,897.3792871000041,897.3952933999972,897.3952933999972,897.3952933999972,897.4787658999994,897.7295526000089,,,,,,,,,,,,,,,,,,,,,,down,4.439657199996873,None,space,0.31784499999776017,None,P149,001,2025-04-11_10h19.18.764,posner_endo_new1,2024.2.4,60.04909613909894,2025-04-11 10h19.26.505003 +0100,
cube_r.png,0.1,-0.31,invalid,52,52,0,down,6.080819299997529,None,space,0.4105619000038132,None,,,,,,,,,0,52,52,52,897.7450056999951,,,,,,,,,,,,,897.7298196000047,897.7450056999951,897.7450056999951,897.7450056999951,903.8397440999979,,,,903.8492311000009,903.8594439000008,903.8594439000008,903.905651299996,903.9059675000026,903.9220272000093,903.9220272000093,903.9220272000093,904.0054514000076,904.3393789999973,,,,,,,,,,,,,,,,,,,,,,down,6.080819299997529,None,space,0.4105619000038132,None,P149,001,2025-04-11_10h19.18.764,posner_endo_new1,2024.2.4,60.04909613909894,2025-04-11 10h19.26.505003 +0100,
cube_l.png,0.1,-0.31,valid,53,53,0,down,4.566944999998668,None,space,0.3857902999880025,None,,,,,,,,,0,53,53,53,904.354965999999,,,,,,,,,,,,,904.3396525999997,904.354965999999,904.354965999999,904.354965999999,908.9347713000025,,,,908.9441623000021,908.9543040999997,908.9543040999997,909.0005014000053,909.0008152000082,909.0171205000079,909.0171205000079,909.0171205000079,909.1003239999991,909.417692700008,,,,,,,,,,,,,,,,,,,,,,down,4.566944999998668,None,space,0.3857902999880025,None,P149,001,2025-04-11_10h19.18.764,posner_endo_new1,2024.2.4,60.04909613909894,2025-04-11 10h19.26.505003 +0100,
cube_r.png,0.1,10,catch,54,54,0,down,6.832956500002183,None,None,,,,,,,,,,,0,54,54,54,909.4332695000048,,,,,,,,,,,,,909.4179679000081,909.4332695000048,909.4332695000048,909.4332695000048,916.2772112000093,,,,916.2866269000078,916.2967501000094,916.2967501000094,916.3428902000014,916.3432113000017,916.3592340000032,916.3592340000032,916.3592340000032,916.4259542000073,919.357021200005,,,,918.4405593999982,919.372916399996,919.372916399996,919.372916399996,,,,,,,,,,,,,,,down,6.832956500002183,None,None,,,P149,001,2025-04-11_10h19.18.764,posner_endo_new1,2024.2.4,60.04909613909894,2025-04-11 10h19.26.505003 +0100,
cube_l.png,0.1,0.31,invalid,55,55,0,down,2.2130165999988094,None,space,0.48001270000531804,None,,,,,,,,,0,55,55,55,919.372916399996,,,,,,,,,,,,,919.3572724999976,919.372916399996,919.372916399996,919.372916399996,921.5885470000067,,,,921.5979904999986,921.6081908000051,921.6081908000051,921.6540915000078,921.6544022000016,921.6707367000054,921.6707367000054,921.6707367000054,921.7538979999954,922.1547100000025,,,,,,,,,,,,,,,,,,,,,,down,2.2130165999988094,None,space,0.48001270000531804,None,P149,001,2025-04-11_10h19.18.764,posner_endo_new1,2024.2.4,60.04909613909894,2025-04-11 10h19.26.505003 +0100,
cube_l.png,0.1,-0.31,valid,56,56,0,down,5.799997600013739,None,space,0.4637279999878956,None,,,,,,,,,0,56,56,56,922.1700889000058,,,,,,,,,,,,,922.1549780000059,922.1700889000058,922.1700889000058,922.1700889000058,927.9819552999979,,,,927.9913794000022,928.001588500003,928.001588500003,928.047550000003,928.0478577000031,928.0641208000015,928.0641208000015,928.0641208000015,928.1472244000033,928.5316117000039,,,,,,,,,,,,,,,,,,,,,,down,5.799997600013739,None,space,0.4637279999878956,None,P149,001,2025-04-11_10h19.18.764,posner_endo_new1,2024.2.4,60.04909613909894,2025-04-11 10h19.26.505003 +0100,
cube_r.png,0.1,0.31,valid,57,57,0,down,5.4074569000076735,None,space,0.5199889999930747,None,,,,,,,,,0,57,57,57,928.5470517000067,,,,,,,,,,,,,928.5318808000011,928.5470517000067,928.5470517000067,928.5470517000067,933.9591246000055,,,,933.9685202999972,933.9785905000026,933.9785905000026,934.0248251000012,934.0251368000027,934.0412199999992,934.0412199999992,934.0412199999992,934.1244791000063,934.5751978000044,,,,,,,,,,,,,,,,,,,,,,down,5.4074569000076735,None,space,0.5199889999930747,None,P149,001,2025-04-11_10h19.18.764,posner_endo_new1,2024.2.4,60.04909613909894,2025-04-11 10h19.26.505003 +0100,
cube_r.png,0.1,-0.31,invalid,58,58,0,down,3.787836999996216,None,space,0.5231561999971746,None,,,,,,,,,0,58,58,58,934.5907383000012,,,,,,,,,,,,,934.5754621000087,934.5907383000012,934.5907383000012,934.5907383000012,938.3879198000068,,,,938.3972375000012,938.4074074000091,938.4074074000091,938.453566199998,938.4538853999984,938.4701583999995,938.4701583999995,938.4701583999995,938.5532038000092,939.0038925999979,,,,,,,,,,,,,,,,,,,,,,down,3.787836999996216,None,space,0.5231561999971746,None,P149,001,2025-04-11_10h19.18.764,posner_endo_new1,2024.2.4,60.04909613909894,2025-04-11 10h19.26.505003 +0100,
cube_l.png,0.1,0.31,invalid,59,59,0,down,9.22250129999884,None,space,0.34709700000530574,None,,,,,,,,,0,59,59,59,939.0194331999955,,,,,,,,,,,,,939.0041586000007,939.0194331999955,939.0194331999955,939.0194331999955,948.2445874999976,,,,948.2530930000066,948.2630881000077,948.2630881000077,948.3101198000077,948.3103533999965,948.3267138000083,948.3267138000083,948.3267138000083,948.4102041000006,948.6769696999982,,,,,,,,,,,,,,,,,,,,,,down,9.22250129999884,None,space,0.34709700000530574,None,P149,001,2025-04-11_10h19.18.764,posner_endo_new1,2024.2.4,60.04909613909894,2025-04-11 10h19.26.505003 +0100,
