cue_img,cue_soa,target_x,trial,thisN,thisTrialN,thisRepN,key_control2.keys,key_control2.rt,key_control2.duration,key_resp.keys,key_resp.rt,key_resp.duration,practice.thisRepN,practice.thisTrialN,practice.thisN,practice.thisIndex,block1.thisRepN,block1.thisTrialN,block1.thisN,block1.thisIndex,block2.thisRepN,block2.thisTrialN,block2.thisN,block2.thisIndex,thisRow.t,notes,instructions.started,instructions_txt.started,key_control.started,instructions.stopped,key_control.keys,key_control.rt,key_control.duration,ready.started,ready_txt.started,ready_txt.stopped,ready.stopped,fix.started,fixation.started,key_control2.started,fixation_cross.started,fix.stopped,practice.key_control2.keys,practice.key_control2.rt,practice.key_control2.duration,cue.started,cube.started,fixation_cross_cue.started,cue.stopped,target.started,fixation_target.started,fixation_cross_target.started,key_resp.started,star.started,target.stopped,practice.key_resp.keys,practice.key_resp.rt,practice.key_resp.duration,star.stopped,fixation_target.stopped,fixation_cross_target.stopped,key_resp.stopped,block1.key_control2.keys,block1.key_control2.rt,block1.key_control2.duration,block1.key_resp.keys,block1.key_resp.rt,block1.key_resp.duration,break_2.started,text.started,key_control3.started,text.stopped,break_2.stopped,key_control3.keys,key_control3.rt,key_control3.duration,block2.key_control2.keys,block2.key_control2.rt,block2.key_control2.duration,block2.key_resp.keys,block2.key_resp.rt,block2.key_resp.duration,participant,session,date,expName,psychopyVersion,frameRate,expStart,
,,,,,,,,,,,,,,,,,,,,,,,,,,,0.007635900008608587,0.0269795000058366,0.0269795000058366,4.285449600007269,up,4.233614400000079,None,,,,,,,,,,,,,,,,,,,,,,,,,,,,,,,,,,,,,,,,,,,,,,,,,,P150,001,2025-04-11_11h15.14.301,posner_endo_new1,2024.2.4,60.105003439383694,2025-04-11 11h15.21.142725 +0100,
,,,,,,,,,,,,,,,,,,,,,,,,,,,,,,,,,,4.2855181000049924,4.303676099996665,7.293829700007336,7.2702327000006335,,,,,,,,,,,,,,,,,,,,,,,,,,,,,,,,,,,,,,,,,,,,,,P150,001,2025-04-11_11h15.14.301,posner_endo_new1,2024.2.4,60.105003439383694,2025-04-11 11h15.21.142725 +0100,
cube_l.png,0.1,0.31,invalid,0,0,0,down,35.11865439999383,None,space,0.4860919000057038,None,0,0,0,5,,,,,,,,,7.293829700007336,,,,,,,,,,,,,7.281918799999403,7.293829700007336,7.293829700007336,7.293829700007336,42.41777800000273,down,35.11865439999383,None,42.427842999997665,42.438105299996096,42.438105299996096,42.483764500007965,42.48399370000698,42.500309499999275,42.500309499999275,42.500309499999275,42.566869200003566,43.00040390000504,space,0.4860919000057038,None,,,,,,,,,,,,,,,,,,,,,,,,,P150,001,2025-04-11_11h15.14.301,posner_endo_new1,2024.2.4,60.105003439383694,2025-04-11 11h15.21.142725 +0100,
cube_l.png,0.1,-0.31,valid,1,1,0,down,6.1165526999975555,None,space,0.3838696000020718,None,0,1,1,4,,,,,,,,,43.01639590000559,,,,,,,,,,,,,43.00057760000345,43.01639590000559,43.01639590000559,43.01639590000559,49.14419120000093,down,6.1165526999975555,None,49.15038780000759,49.162125300004845,49.162125300004845,49.21023250000144,49.210450900005526,49.22671499999706,49.22671499999706,49.22671499999706,49.29325859999517,49.62706130000879,space,0.3838696000020718,None,,,,,,,,,,,,,,,,,,,,,,,,,P150,001,2025-04-11_11h15.14.301,posner_endo_new1,2024.2.4,60.105003439383694,2025-04-11 11h15.21.142725 +0100,
cube_r.png,0.1,-0.31,invalid,2,2,0,down,5.665335400000913,None,space,0.5073741999949561,None,0,2,2,9,,,,,,,,,49.64289469999494,,,,,,,,,,,,,49.62722419999773,49.64289469999494,49.64289469999494,49.64289469999494,55.32159989999491,down,5.665335400000913,None,55.32998740000767,55.33987090000301,55.33987090000301,55.387166800006526,55.387386999995215,55.40371149999555,55.40371149999555,55.40371149999555,55.487118500008364,55.920741399997496,space,0.5073741999949561,None,,,,,,,,,,,,,,,,,,,,,,,,,P150,001,2025-04-11_11h15.14.301,posner_endo_new1,2024.2.4,60.105003439383694,2025-04-11 11h15.21.142725 +0100,
cube_r.png,0.1,0.31,valid,3,3,0,down,6.348336600000039,None,space,0.3506404000072507,None,0,3,3,10,,,,,,,,,55.936415999996825,,,,,,,,,,,,,55.92090409999946,55.936415999996825,55.936415999996825,55.936415999996825,62.29765720000432,down,6.348336600000039,None,62.30954539999948,62.3198235000018,62.3198235000018,62.36341710000124,62.363761900007376,62.37989280000329,62.37989280000329,62.37989280000329,62.46318429999519,62.74742630000401,space,0.3506404000072507,None,,,,,,,,,,,,,,,,,,,,,,,,,P150,001,2025-04-11_11h15.14.301,posner_endo_new1,2024.2.4,60.105003439383694,2025-04-11 11h15.21.142725 +0100,
cube_l.png,0.1,-0.31,valid,4,4,0,down,5.379101099999389,None,space,0.4278316999989329,None,0,4,4,0,,,,,,,,,62.76286149999942,,,,,,,,,,,,,62.74769640000886,62.76286149999942,62.76286149999942,62.76286149999942,68.15793590000249,down,5.379101099999389,None,68.16455790000327,68.17620410000382,68.17620410000382,68.22400060000655,68.22421939999913,68.24063030000252,68.24063030000252,68.24063030000252,68.30709529999876,68.67421549999563,space,0.4278316999989329,None,,,,,,,,,,,,,,,,,,,,,,,,,P150,001,2025-04-11_11h15.14.301,posner_endo_new1,2024.2.4,60.105003439383694,2025-04-11 11h15.21.142725 +0100,
cube_r.png,0.1,10,catch,5,5,0,down,6.698417800012976,None,None,,,0,5,5,3,,,,,,,,,68.69018710000091,,,,,,,,,,,,,68.67437609999615,68.69018710000091,68.69018710000091,68.69018710000091,75.40053470000566,down,6.698417800012976,None,75.40709219999553,75.41891130000295,75.41891130000295,75.46645269999863,75.46695220000402,75.48293120000744,75.48293120000744,75.48293120000744,75.5661368000001,78.48086540000804,None,,,77.58100040000863,78.49672049999936,78.49672049999936,78.49672049999936,,,,,,,,,,,,,,,,,,,,,P150,001,2025-04-11_11h15.14.301,posner_endo_new1,2024.2.4,60.105003439383694,2025-04-11 11h15.21.142725 +0100,
cube_r.png,0.1,-0.31,invalid,6,6,0,down,3.500488999998197,None,space,0.42780730000231415,None,0,6,6,2,,,,,,,,,78.49672049999936,,,,,,,,,,,,,78.48111890000291,78.49672049999936,78.49672049999936,78.49672049999936,82.01107770000817,down,3.500488999998197,None,82.02298550000705,82.0334057,82.0334057,82.07660080000642,82.07693910000671,82.09303279999585,82.09303279999585,82.09303279999585,82.17629450000823,82.52723180000612,space,0.42780730000231415,None,,,,,,,,,,,,,,,,,,,,,,,,,P150,001,2025-04-11_11h15.14.301,posner_endo_new1,2024.2.4,60.105003439383694,2025-04-11 11h15.21.142725 +0100,
cube_l.png,0.1,-0.31,valid,7,7,0,down,5.685542799998075,None,space,0.39107870000589173,None,0,7,7,8,,,,,,,,,82.54263910000736,,,,,,,,,,,,,82.52750070000184,82.54263910000736,82.54263910000736,82.54263910000736,88.23785180000414,down,5.685542799998075,None,88.2495956000057,88.25979510000616,88.25979510000616,88.30359110000427,88.30392819999543,88.31992619999801,88.31992619999801,88.31992619999801,88.40331819999847,88.72075180000684,space,0.39107870000589173,None,,,,,,,,,,,,,,,,,,,,,,,,,P150,001,2025-04-11_11h15.14.301,posner_endo_new1,2024.2.4,60.105003439383694,2025-04-11 11h15.21.142725 +0100,
cube_r.png,0.1,-0.31,invalid,8,8,0,down,5.18026569999347,None,space,0.5106210000085412,None,0,8,8,6,,,,,,,,,88.73620120000851,,,,,,,,,,,,,88.72102710000763,88.73620120000851,88.73620120000851,88.73620120000851,93.93213159999868,down,5.18026569999347,None,93.94113639999705,93.95098670000152,93.95098670000152,93.99782520000008,93.99806369999715,94.01416679999966,94.01416679999966,94.01416679999966,94.09757549999631,94.53103300000657,space,0.5106210000085412,None,,,,,,,,,,,,,,,,,,,,,,,,,P150,001,2025-04-11_11h15.14.301,posner_endo_new1,2024.2.4,60.105003439383694,2025-04-11 11h15.21.142725 +0100,
cube_l.png,0.1,0.31,invalid,9,9,0,down,4.858254699996905,None,space,0.48497520000091754,None,0,9,9,1,,,,,,,,,94.54687429999467,,,,,,,,,,,,,94.53120830000262,94.54687429999467,94.54687429999467,94.54687429999467,99.4094660999981,down,4.858254699996905,None,99.41672779999499,99.42848909999884,99.42848909999884,99.47534370000358,99.4755615000031,99.49180709999928,99.49180709999928,99.49180709999928,99.55853890000435,99.99212510000507,space,0.48497520000091754,None,,,,,,,,,,,,,,,,,,,,,,,,,P150,001,2025-04-11_11h15.14.301,posner_endo_new1,2024.2.4,60.105003439383694,2025-04-11 11h15.21.142725 +0100,
cube_r.png,0.1,0.31,valid,10,10,0,down,5.37299420000636,None,space,0.4102836000092793,None,0,10,10,7,,,,,,,,,100.00808970000071,,,,,,,,,,,,,99.99228760000551,100.00808970000071,100.00808970000071,100.00808970000071,105.38670479999564,down,5.37299420000636,None,105.39271899999585,105.40380440000445,105.40380440000445,105.4524412000028,105.45292959999642,105.46891510000569,105.46891510000569,105.46891510000569,105.55214050000359,105.88707969999814,space,0.4102836000092793,None,,,,,,,,,,,,,,,,,,,,,,,,,P150,001,2025-04-11_11h15.14.301,posner_endo_new1,2024.2.4,60.105003439383694,2025-04-11 11h15.21.142725 +0100,
,,,,,,,,,,,,,,,,,,,,,,,,,,,,,,,,,,105.88734780000232,105.90175689999887,108.91920410000603,108.88313590000325,,,,,,,,,,,,,,,,,,,,,,,,,,,,,,,,,,,,,,,,,,,,,,P150,001,2025-04-11_11h15.14.301,posner_endo_new1,2024.2.4,60.105003439383694,2025-04-11 11h15.21.142725 +0100,
cube_l.png,0.1,10,catch,0,0,0,down,5.509634100002586,None,None,,,,,,,0,0,0,0,,,,,108.91920410000603,,,,,,,,,,,,,108.91063009999925,108.91920410000603,108.91920410000603,108.91920410000603,114.44410599999537,,,,114.45026569999754,114.46207229999709,114.46207229999709,114.51004779999494,114.51027320000867,114.52647480000451,114.52647480000451,114.52647480000451,114.59316459999536,117.52403770000092,,,,116.60779049999837,117.54011440000613,117.54011440000613,117.54011440000613,down,5.509634100002586,None,None,,,,,,,,,,,,,,,,,P150,001,2025-04-11_11h15.14.301,posner_endo_new1,2024.2.4,60.105003439383694,2025-04-11 11h15.21.142725 +0100,
cube_l.png,0.1,10,catch,1,1,0,down,2.96936370000185,None,None,,,,,,,0,1,1,1,,,,,117.54011440000613,,,,,,,,,,,,,117.5242711000028,117.54011440000613,117.54011440000613,117.54011440000613,120.52157320000697,,,,120.53135330000077,120.54142950000823,120.54142950000823,120.58716039999854,120.58747009999934,120.60377050000534,120.60377050000534,120.60377050000534,120.68697189999511,123.60119299999496,,,,122.70151490000717,123.61721530000796,123.61721530000796,123.61721530000796,down,2.96936370000185,None,None,,,,,,,,,,,,,,,,,P150,001,2025-04-11_11h15.14.301,posner_endo_new1,2024.2.4,60.105003439383694,2025-04-11 11h15.21.142725 +0100,
cube_l.png,0.1,0.31,invalid,2,2,0,down,3.3156648999865865,None,space,0.4930735000089044,None,,,,,0,2,2,2,,,,,123.61721530000796,,,,,,,,,,,,,123.60142720000295,123.61721530000796,123.61721530000796,123.61721530000796,126.94825640000636,,,,126.95784190000268,126.96791140000278,126.96791140000278,127.01391599999624,127.0142177999951,127.03042589999677,127.03042589999677,127.03042589999677,127.11369460000424,127.53094939999573,,,,,,,,down,3.3156648999865865,None,space,0.4930735000089044,None,,,,,,,,,,,,,,,P150,001,2025-04-11_11h15.14.301,posner_endo_new1,2024.2.4,60.105003439383694,2025-04-11 11h15.21.142725 +0100,
cube_l.png,0.1,0.31,invalid,3,3,0,down,9.593869500007713,None,space,0.43130380001093727,None,,,,,0,3,3,3,,,,,127.54649249999784,,,,,,,,,,,,,127.5312103000033,127.54649249999784,127.54649249999784,127.54649249999784,137.15439690000494,,,,137.16404770000372,137.17420290000155,137.17420290000155,137.22018620000745,137.2204927999992,137.23672509999597,137.23672509999597,137.23672509999597,137.3198970000085,137.6707150000002,,,,,,,,down,9.593869500007713,None,space,0.43130380001093727,None,,,,,,,,,,,,,,,P150,001,2025-04-11_11h15.14.301,posner_endo_new1,2024.2.4,60.105003439383694,2025-04-11 11h15.21.142725 +0100,
cube_l.png,0.1,-0.31,valid,4,4,0,down,5.358281999986502,None,space,0.4246527000068454,None,,,,,0,4,4,4,,,,,137.68627380000544,,,,,,,,,,,,,137.67097010000725,137.68627380000544,137.68627380000544,137.68627380000544,143.0485910999996,,,,143.0581380000076,143.06819499999983,143.06819499999983,143.11419740000565,143.11450429999968,143.13057599999593,143.13057599999593,143.13057599999593,143.21396350000578,143.56456149999576,,,,,,,,down,5.358281999986502,None,space,0.4246527000068454,None,,,,,,,,,,,,,,,P150,001,2025-04-11_11h15.14.301,posner_endo_new1,2024.2.4,60.105003439383694,2025-04-11 11h15.21.142725 +0100,
cube_r.png,0.1,-0.31,invalid,5,5,0,down,6.047935299997334,None,space,0.37264760000107344,None,,,,,0,5,5,5,,,,,143.58021919999737,,,,,,,,,,,,,143.56481369999528,143.58021919999737,143.58021919999737,143.58021919999737,149.6417250999948,,,,149.64936199999647,149.66023730000597,149.66023730000597,149.70732660000795,149.70754810000653,149.7238905999984,149.7238905999984,149.7238905999984,149.80707860000257,150.10731259999739,,,,,,,,down,6.047935299997334,None,space,0.37264760000107344,None,,,,,,,,,,,,,,,P150,001,2025-04-11_11h15.14.301,posner_endo_new1,2024.2.4,60.105003439383694,2025-04-11 11h15.21.142725 +0100,
cube_r.png,0.1,0.31,valid,6,6,0,down,4.865292799993767,None,space,0.42852260000654496,None,,,,,0,6,6,6,,,,,150.1234048000042,,,,,,,,,,,,,150.10748550000426,150.1234048000042,150.1234048000042,150.1234048000042,155.00264289999905,,,,155.00864040000306,155.02033929999743,155.02033929999743,155.0685336000024,155.06875809999474,155.08502490000683,155.08502490000683,155.08502490000683,155.16828810000152,155.5188116000063,,,,,,,,down,4.865292799993767,None,space,0.42852260000654496,None,,,,,,,,,,,,,,,P150,001,2025-04-11_11h15.14.301,posner_endo_new1,2024.2.4,60.105003439383694,2025-04-11 11h15.21.142725 +0100,
cube_r.png,0.1,-0.31,invalid,7,7,0,down,5.878835600000457,None,space,0.4976509999978589,None,,,,,0,7,7,7,,,,,155.5346494999976,,,,,,,,,,,,,155.51898190000793,155.5346494999976,155.5346494999976,155.5346494999976,161.42942640000547,,,,161.43528109999897,161.44665169999644,161.44665169999644,161.49525330000324,161.4954834000091,161.51183400000446,161.51183400000446,161.51183400000446,161.57848039999953,162.01205829999526,,,,,,,,down,5.878835600000457,None,space,0.4976509999978589,None,,,,,,,,,,,,,,,P150,001,2025-04-11_11h15.14.301,posner_endo_new1,2024.2.4,60.105003439383694,2025-04-11 11h15.21.142725 +0100,
cube_l.png,0.1,-0.31,valid,8,8,0,down,5.9370630999910645,None,space,0.45653260000108276,None,,,,,0,8,8,8,,,,,162.02798250000342,,,,,,,,,,,,,162.01222899999993,162.02798250000342,162.02798250000342,162.02798250000342,167.97256750000815,,,,167.97842280000623,167.99005609999585,167.99005609999585,168.03867290000198,168.03889399999753,168.0552883000055,168.0552883000055,168.0552883000055,168.12163209999562,168.5220321000088,,,,,,,,down,5.9370630999910645,None,space,0.45653260000108276,None,,,,,,,,,,,,,,,P150,001,2025-04-11_11h15.14.301,posner_endo_new1,2024.2.4,60.105003439383694,2025-04-11 11h15.21.142725 +0100,
cube_r.png,0.1,-0.31,invalid,9,9,0,down,5.890283200002159,None,space,0.3868157999968389,None,,,,,0,9,9,9,,,,,168.53800719999708,,,,,,,,,,,,,168.5222031000012,168.53800719999708,168.53800719999708,168.53800719999708,174.4338654000021,,,,174.45191820000764,174.46377580000262,174.46377580000262,174.49867410000297,174.49898260000919,174.51508009999816,174.51508009999816,174.51508009999816,174.59845279999718,174.91578769999614,,,,,,,,down,5.890283200002159,None,space,0.3868157999968389,None,,,,,,,,,,,,,,,P150,001,2025-04-11_11h15.14.301,posner_endo_new1,2024.2.4,60.105003439383694,2025-04-11 11h15.21.142725 +0100,
cube_l.png,0.1,0.31,invalid,10,10,0,down,5.881548900011694,None,space,0.3600975000008475,None,,,,,0,10,10,10,,,,,174.93144680000842,,,,,,,,,,,,,174.91603930000565,174.93144680000842,174.93144680000842,174.93144680000842,180.82693789999757,,,,180.84497930000362,180.85562090000894,180.85562090000894,180.89208089999738,180.89240650000283,180.90851950000797,180.90851950000797,180.90851950000797,180.99189849999675,181.27626300000702,,,,,,,,down,5.881548900011694,None,space,0.3600975000008475,None,,,,,,,,,,,,,,,P150,001,2025-04-11_11h15.14.301,posner_endo_new1,2024.2.4,60.105003439383694,2025-04-11 11h15.21.142725 +0100,
cube_r.png,0.1,-0.31,invalid,11,11,0,down,6.456967599995551,None,space,0.4224229999963427,None,,,,,0,11,11,11,,,,,181.29149329999927,,,,,,,,,,,,,181.27653770000325,181.29149329999927,181.29149329999927,181.29149329999927,187.75356110000575,,,,187.77153140000883,187.78336800000397,187.78336800000397,187.81836119999934,187.8186618000036,187.83492000000842,187.83492000000842,187.83492000000842,187.91814760000852,188.26867299999867,,,,,,,,down,6.456967599995551,None,space,0.4224229999963427,None,,,,,,,,,,,,,,,P150,001,2025-04-11_11h15.14.301,posner_endo_new1,2024.2.4,60.105003439383694,2025-04-11 11h15.21.142725 +0100,
cube_r.png,0.1,0.31,valid,12,12,0,down,6.51185660000192,None,space,0.4258177000010619,None,,,,,0,12,12,12,,,,,188.28435750000062,,,,,,,,,,,,,188.26892240000598,188.28435750000062,188.28435750000062,188.28435750000062,194.8128413999948,,,,194.83086220000405,194.84167520000483,194.84167520000483,194.87775169999804,194.87829330000386,194.89415370000643,194.89415370000643,194.89415370000643,194.97739060000458,195.32910850000917,,,,,,,,down,6.51185660000192,None,space,0.4258177000010619,None,,,,,,,,,,,,,,,P150,001,2025-04-11_11h15.14.301,posner_endo_new1,2024.2.4,60.105003439383694,2025-04-11 11h15.21.142725 +0100,
cube_l.png,0.1,10,catch,13,13,0,down,5.836483900013263,None,None,,,,,,,0,13,13,13,,,,,195.34370480000507,,,,,,,,,,,,,195.32958299999882,195.34370480000507,195.34370480000507,195.34370480000507,201.18977120000636,,,,201.20767820000765,201.2193421999982,201.2193421999982,201.2545625000057,201.25486299999466,201.27113290000125,201.27113290000125,201.27113290000125,201.35443439999653,204.26867940000375,,,,203.3691553999961,204.28503549999732,204.28503549999732,204.28503549999732,down,5.836483900013263,None,None,,,,,,,,,,,,,,,,,P150,001,2025-04-11_11h15.14.301,posner_endo_new1,2024.2.4,60.105003439383694,2025-04-11 11h15.21.142725 +0100,
cube_r.png,0.1,-0.31,invalid,14,14,0,down,2.447920399994473,None,space,0.433709099990665,None,,,,,0,14,14,14,,,,,204.28503549999732,,,,,,,,,,,,,204.26891220000107,204.28503549999732,204.28503549999732,204.28503549999732,206.75047970000014,,,,206.7685824000073,206.77943110000342,206.77943110000342,206.8156020000024,206.8161431000044,206.83197670000663,206.83197670000663,206.83197670000663,206.9152122999949,207.28324269999575,,,,,,,,down,2.447920399994473,None,space,0.433709099990665,None,,,,,,,,,,,,,,,P150,001,2025-04-11_11h15.14.301,posner_endo_new1,2024.2.4,60.105003439383694,2025-04-11 11h15.21.142725 +0100,
cube_l.png,0.1,-0.31,valid,15,15,0,down,6.450014799993369,None,space,0.515119700008654,None,,,,,0,15,15,15,,,,,207.2981815999956,,,,,,,,,,,,,207.28372180000588,207.2981815999956,207.2981815999956,207.2981815999956,213.76007289999689,,,,213.77847309999925,213.79008040000917,213.79008040000917,213.82504300000437,213.82538199999544,213.84164660000533,213.84164660000533,213.84164660000533,213.9248277000006,214.35886920000485,,,,,,,,down,6.450014799993369,None,space,0.515119700008654,None,,,,,,,,,,,,,,,P150,001,2025-04-11_11h15.14.301,posner_endo_new1,2024.2.4,60.105003439383694,2025-04-11 11h15.21.142725 +0100,
cube_r.png,0.1,10,catch,16,16,0,down,5.406327100005001,None,None,,,,,,,0,16,16,16,,,,,214.37437940000382,,,,,,,,,,,,,214.35916039999574,214.37437940000382,214.37437940000382,214.37437940000382,219.7867888000037,,,,219.79792810000072,219.80836550000822,219.80836550000822,219.8522696,219.85261240000546,219.86873529999866,219.86873529999866,219.86873529999866,219.95193189999554,222.8663774000015,,,,221.96650019999652,222.88219370000297,222.88219370000297,222.88219370000297,down,5.406327100005001,None,None,,,,,,,,,,,,,,,,,P150,001,2025-04-11_11h15.14.301,posner_endo_new1,2024.2.4,60.105003439383694,2025-04-11 11h15.21.142725 +0100,
cube_r.png,0.1,10,catch,17,17,0,down,2.8499888999940595,None,None,,,,,,,0,17,17,17,,,,,222.88219370000297,,,,,,,,,,,,,222.86664789999486,222.88219370000297,222.88219370000297,222.88219370000297,225.74713440000778,,,,225.7583905000065,225.76872999999614,225.76872999999614,225.8127633999975,225.8131113999989,225.82937870000023,225.82937870000023,225.82937870000023,225.91261319999467,228.8264990000025,,,,227.92716229999496,228.84281139999803,228.84281139999803,228.84281139999803,down,2.8499888999940595,None,None,,,,,,,,,,,,,,,,,P150,001,2025-04-11_11h15.14.301,posner_endo_new1,2024.2.4,60.105003439383694,2025-04-11 11h15.21.142725 +0100,
cube_l.png,0.1,0.31,invalid,18,18,0,down,4.361690299992915,None,space,0.5371788000047673,None,,,,,0,18,18,18,,,,,228.84281139999803,,,,,,,,,,,,,228.826650899995,228.84281139999803,228.84281139999803,228.84281139999803,233.20609029999468,,,,233.2118952000019,233.22362770000473,233.22362770000473,233.27237239999522,233.27259429999685,233.28828740000608,233.28828740000608,233.28828740000608,233.37142799999856,233.83847050000622,,,,,,,,down,4.361690299992915,None,space,0.5371788000047673,None,,,,,,,,,,,,,,,P150,001,2025-04-11_11h15.14.301,posner_endo_new1,2024.2.4,60.105003439383694,2025-04-11 11h15.21.142725 +0100,
cube_l.png,0.1,10,catch,19,19,0,down,5.845649800001411,None,None,,,,,,,0,19,19,19,,,,,233.8545054999995,,,,,,,,,,,,,233.83864109999558,233.8545054999995,233.8545054999995,233.8545054999995,239.7162313000008,,,,239.725629499997,239.73578600000474,239.73578600000474,239.7818613999989,239.78216479999537,239.7983561000001,239.7983561000001,239.7983561000001,239.88165700000536,242.7960288000031,,,,241.89623640000354,242.81200459999673,242.81200459999673,242.81200459999673,down,5.845649800001411,None,None,,,,,,,,,,,,,,,,,P150,001,2025-04-11_11h15.14.301,posner_endo_new1,2024.2.4,60.105003439383694,2025-04-11 11h15.21.142725 +0100,
cube_l.png,0.1,0.31,invalid,20,20,0,down,1.696437299993704,None,space,0.4178358999924967,None,,,,,0,20,20,20,,,,,242.81200459999673,,,,,,,,,,,,,242.79626730000018,242.81200459999673,242.81200459999673,242.81200459999673,244.51123400000506,,,,244.5205100000021,244.53076199999487,244.53076199999487,244.57701540000562,244.57731290000083,244.59341230000427,244.59341230000427,244.59341230000427,244.67681520000042,245.02732649999962,,,,,,,,down,1.696437299993704,None,space,0.4178358999924967,None,,,,,,,,,,,,,,,P150,001,2025-04-11_11h15.14.301,posner_endo_new1,2024.2.4,60.105003439383694,2025-04-11 11h15.21.142725 +0100,
cube_l.png,0.1,-0.31,valid,21,21,0,down,5.745365199996741,None,space,0.5019417000003159,None,,,,,0,21,21,21,,,,,245.04298820000258,,,,,,,,,,,,,245.0275854000065,245.04298820000258,245.04298820000258,245.04298820000258,250.80485509999562,,,,250.814160000009,250.8240633999958,250.8240633999958,250.8708048999979,250.8714586999995,250.88715959999536,250.88715959999536,250.88715959999536,250.97044790000655,251.40566450000915,,,,,,,,down,5.745365199996741,None,space,0.5019417000003159,None,,,,,,,,,,,,,,,P150,001,2025-04-11_11h15.14.301,posner_endo_new1,2024.2.4,60.105003439383694,2025-04-11 11h15.21.142725 +0100,
cube_r.png,0.1,0.31,valid,22,22,0,down,5.216121999997995,None,space,0.40577850000408944,None,,,,,0,22,22,22,,,,,251.41992729999765,,,,,,,,,,,,,251.40629729999637,251.41992729999765,251.41992729999765,251.41992729999765,256.6487635999947,,,,256.65807259999565,256.6682216000045,256.6682216000045,256.7145931999985,256.7148945000081,256.7310657000053,256.7310657000053,256.7310657000053,256.8143975999992,257.1482839000091,,,,,,,,down,5.216121999997995,None,space,0.40577850000408944,None,,,,,,,,,,,,,,,P150,001,2025-04-11_11h15.14.301,posner_endo_new1,2024.2.4,60.105003439383694,2025-04-11 11h15.21.142725 +0100,
cube_r.png,0.1,-0.31,invalid,23,23,0,down,5.024985200012452,None,space,0.6087013999931514,None,,,,,0,23,23,23,,,,,257.1638733,,,,,,,,,,,,,257.1485335000034,257.1638733,257.1638733,257.1638733,262.1932906000002,,,,262.2026468999975,262.2127598000079,262.2127598000079,262.258885800009,262.259183999995,262.2756770999986,262.2756770999986,262.2756770999986,262.3586695999984,262.8924263000081,,,,,,,,down,5.024985200012452,None,space,0.6087013999931514,None,,,,,,,,,,,,,,,P150,001,2025-04-11_11h15.14.301,posner_endo_new1,2024.2.4,60.105003439383694,2025-04-11 11h15.21.142725 +0100,
cube_r.png,0.1,0.31,valid,24,24,0,down,4.4323589999985415,None,space,0.46133250001003034,None,,,,,0,24,24,24,,,,,262.9080729999987,,,,,,,,,,,,,262.8926733999979,262.9080729999987,262.9080729999987,262.9080729999987,267.3544666999951,,,,267.3638218999986,267.3740182000038,267.3740182000038,267.42027669999516,267.4205848999991,267.43674869999813,267.43674869999813,267.43674869999813,267.5200008999964,267.90404259999923,,,,,,,,down,4.4323589999985415,None,space,0.46133250001003034,None,,,,,,,,,,,,,,,P150,001,2025-04-11_11h15.14.301,posner_endo_new1,2024.2.4,60.105003439383694,2025-04-11 11h15.21.142725 +0100,
cube_r.png,0.1,-0.31,invalid,25,25,0,down,8.796461799996905,None,space,0.385345699993195,None,,,,,0,25,25,25,,,,,267.91962919999787,,,,,,,,,,,,,267.9042909999989,267.91962919999787,267.91962919999787,267.91962919999787,276.7281567000027,,,,276.7374196000019,276.74763410000014,276.74763410000014,276.79392130000633,276.7942231000052,276.81048349999764,276.81048349999764,276.81048349999764,276.8937586999964,277.2111791000061,,,,,,,,down,8.796461799996905,None,space,0.385345699993195,None,,,,,,,,,,,,,,,P150,001,2025-04-11_11h15.14.301,posner_endo_new1,2024.2.4,60.105003439383694,2025-04-11 11h15.21.142725 +0100,
cube_l.png,0.1,-0.31,valid,26,26,0,down,5.243211200009682,None,space,0.4150993000075687,None,,,,,0,26,26,26,,,,,277.2267733000044,,,,,,,,,,,,,277.2114266999997,277.2267733000044,277.2267733000044,277.2267733000044,282.47252239999943,,,,282.4818679000018,282.4920595000003,282.4920595000003,282.53809000000183,282.53839159999916,282.5545831000054,282.5545831000054,282.5545831000054,282.63784940000915,282.9718514999986,,,,,,,,down,5.243211200009682,None,space,0.4150993000075687,None,,,,,,,,,,,,,,,P150,001,2025-04-11_11h15.14.301,posner_endo_new1,2024.2.4,60.105003439383694,2025-04-11 11h15.21.142725 +0100,
cube_r.png,0.1,0.31,valid,27,27,0,down,6.744576600001892,None,space,0.4032994999870425,None,,,,,0,27,27,27,,,,,282.9875008999952,,,,,,,,,,,,,282.97210130000894,282.9875008999952,282.9875008999952,282.9875008999952,289.7484024000005,,,,289.7577663999982,289.76798810000764,289.76798810000764,289.8139904999989,289.8142899999948,289.83056889999716,289.83056889999716,289.83056889999716,289.91377790000115,290.24775199999567,,,,,,,,down,6.744576600001892,None,space,0.4032994999870425,None,,,,,,,,,,,,,,,P150,001,2025-04-11_11h15.14.301,posner_endo_new1,2024.2.4,60.105003439383694,2025-04-11 11h15.21.142725 +0100,
cube_r.png,0.1,10,catch,28,28,0,down,11.789519400001154,None,None,,,,,,,0,28,28,28,,,,,290.263389300002,,,,,,,,,,,,,290.2480132000055,290.263389300002,290.263389300002,290.263389300002,302.0690408000082,,,,302.07777659999556,302.087512099999,302.087512099999,302.13469580000674,302.1349157000077,302.1510740000085,302.1510740000085,302.1510740000085,302.23448899999494,305.14857820000907,,,,304.24922450000304,305.1648792000051,305.1648792000051,305.1648792000051,down,11.789519400001154,None,None,,,,,,,,,,,,,,,,,P150,001,2025-04-11_11h15.14.301,posner_endo_new1,2024.2.4,60.105003439383694,2025-04-11 11h15.21.142725 +0100,
cube_r.png,0.1,0.31,valid,29,29,0,down,3.511751900005038,None,space,0.4003350999992108,None,,,,,0,29,29,29,,,,,305.1648792000051,,,,,,,,,,,,,305.1487377000012,305.1648792000051,305.1648792000051,305.1648792000051,308.6786457999988,,,,308.6848173000035,308.69656779999787,308.69656779999787,308.7445058000012,308.744726600009,308.76118020000285,308.76118020000285,308.76118020000285,308.8276929999993,309.178485299999,,,,,,,,down,3.511751900005038,None,space,0.4003350999992108,None,,,,,,,,,,,,,,,P150,001,2025-04-11_11h15.14.301,posner_endo_new1,2024.2.4,60.105003439383694,2025-04-11 11h15.21.142725 +0100,
cube_r.png,0.1,0.31,valid,30,30,0,down,6.587447099998826,None,space,0.53818850000971,None,,,,,0,30,30,30,,,,,309.1935952000058,,,,,,,,,,,,,309.17884849999973,309.1935952000058,309.1935952000058,309.1935952000058,315.78840710000077,,,,315.7977973000088,315.80792259999726,315.80792259999726,315.8539682999981,315.85427520000667,315.87059249999584,315.87059249999584,315.87059249999584,315.9537943000032,316.42093380000733,,,,,,,,down,6.587447099998826,None,space,0.53818850000971,None,,,,,,,,,,,,,,,P150,001,2025-04-11_11h15.14.301,posner_endo_new1,2024.2.4,60.105003439383694,2025-04-11 11h15.21.142725 +0100,
cube_l.png,0.1,-0.31,valid,31,31,0,down,4.855714799996349,None,space,0.4745536999980686,None,,,,,0,31,31,31,,,,,316.43659490000573,,,,,,,,,,,,,316.4211811999994,316.43659490000573,316.43659490000573,316.43659490000573,321.29929029999766,,,,321.30860940000275,321.3187704000011,321.3187704000011,321.3650336999999,321.3653351999965,321.38157880000654,321.38157880000654,321.38157880000654,321.4647973999963,321.86546519999683,,,,,,,,down,4.855714799996349,None,space,0.4745536999980686,None,,,,,,,,,,,,,,,P150,001,2025-04-11_11h15.14.301,posner_endo_new1,2024.2.4,60.105003439383694,2025-04-11 11h15.21.142725 +0100,
cube_r.png,0.1,0.31,valid,32,32,0,down,5.691020999991451,None,space,0.517530800003442,None,,,,,0,32,32,32,,,,,321.88110700000834,,,,,,,,,,,,,321.86571260000346,321.88110700000834,321.88110700000834,321.88110700000834,327.57633120000537,,,,327.5856913000025,327.5958709999977,327.5958709999977,327.64199960000406,327.64230049999605,327.6584623999952,327.6584623999952,327.6584623999952,327.7417781999975,328.192444100001,,,,,,,,down,5.691020999991451,None,space,0.517530800003442,None,,,,,,,,,,,,,,,P150,001,2025-04-11_11h15.14.301,posner_endo_new1,2024.2.4,60.105003439383694,2025-04-11 11h15.21.142725 +0100,
cube_r.png,0.1,-0.31,invalid,33,33,0,down,4.644861299995682,None,space,0.6949094000010518,None,,,,,0,33,33,33,,,,,328.2079432000028,,,,,,,,,,,,,328.1926944000006,328.2079432000028,328.2079432000028,328.2079432000028,332.85440379999636,,,,332.86372480000136,332.8739072000026,332.8739072000026,332.91974100000516,332.9200390000042,332.9364554000058,332.9364554000058,332.9364554000058,333.01967019999574,333.6367173000035,,,,,,,,down,4.644861299995682,None,space,0.6949094000010518,None,,,,,,,,,,,,,,,P150,001,2025-04-11_11h15.14.301,posner_endo_new1,2024.2.4,60.105003439383694,2025-04-11 11h15.21.142725 +0100,
cube_r.png,0.1,10,catch,34,34,0,down,5.2084884000069,None,None,,,,,,,0,34,34,34,,,,,333.65217070000654,,,,,,,,,,,,,333.63696360000176,333.65217070000654,333.65217070000654,333.65217070000654,338.86486159999913,,,,338.87435410000035,338.8845377999969,338.8845377999969,338.93038119999983,338.93068390000553,338.94694690000324,338.94694690000324,338.94694690000324,339.03016720000596,341.94458779999695,,,,341.0446731999982,341.9604681000055,341.9604681000055,341.9604681000055,down,5.2084884000069,None,None,,,,,,,,,,,,,,,,,P150,001,2025-04-11_11h15.14.301,posner_endo_new1,2024.2.4,60.105003439383694,2025-04-11 11h15.21.142725 +0100,
cube_r.png,0.1,0.31,valid,35,35,0,down,3.0205016000109026,None,space,0.3840037000045413,None,,,,,0,35,35,35,,,,,341.9604681000055,,,,,,,,,,,,,341.9448193999997,341.9604681000055,341.9604681000055,341.9604681000055,344.99180240000715,,,,345.00106779999624,345.0112880000088,345.0112880000088,345.05747159999737,345.0577712000086,345.0739545999968,345.0739545999968,345.0739545999968,345.1573073000036,345.47459670000535,,,,,,,,down,3.0205016000109026,None,space,0.3840037000045413,None,,,,,,,,,,,,,,,P150,001,2025-04-11_11h15.14.301,posner_endo_new1,2024.2.4,60.105003439383694,2025-04-11 11h15.21.142725 +0100,
cube_r.png,0.1,-0.31,invalid,36,36,0,down,7.986425299997791,None,space,0.5302130999916699,None,,,,,0,36,36,36,,,,,345.49029499999597,,,,,,,,,,,,,345.474844700002,345.49029499999597,345.49029499999597,345.49029499999597,353.48317680000036,,,,353.49252899999556,353.502699100005,353.502699100005,353.5488097000052,353.54912070000137,353.56531210000685,353.56531210000685,353.56531210000685,353.64855529999477,354.0992938999989,,,,,,,,down,7.986425299997791,None,space,0.5302130999916699,None,,,,,,,,,,,,,,,P150,001,2025-04-11_11h15.14.301,posner_endo_new1,2024.2.4,60.105003439383694,2025-04-11 11h15.21.142725 +0100,
cube_l.png,0.1,0.31,invalid,37,37,0,down,5.465302200012957,None,space,0.4162568000028841,None,,,,,0,37,37,37,,,,,354.1148500999989,,,,,,,,,,,,,354.099553299995,354.1148500999989,354.1148500999989,354.1148500999989,359.5937821999978,,,,359.603105400005,359.6132202000008,359.6132202000008,359.65921620000154,359.659519199995,359.67570619999606,359.67570619999606,359.67570619999606,359.75902949999727,360.0931131999969,,,,,,,,down,5.465302200012957,None,space,0.4162568000028841,None,,,,,,,,,,,,,,,P150,001,2025-04-11_11h15.14.301,posner_endo_new1,2024.2.4,60.105003439383694,2025-04-11 11h15.21.142725 +0100,
cube_l.png,0.1,0.31,invalid,38,38,0,down,5.736594000001787,None,space,0.42749869999533985,None,,,,,0,38,38,38,,,,,360.1085976000031,,,,,,,,,,,,,360.09336270000495,360.1085976000031,360.1085976000031,360.1085976000031,365.85381240000424,,,,365.8630703999952,365.8734446000017,365.8734446000017,365.91959030000726,365.9198871999979,365.9360732000059,365.9360732000059,365.9360732000059,366.0191041000071,366.36937050000415,,,,,,,,down,5.736594000001787,None,space,0.42749869999533985,None,,,,,,,,,,,,,,,P150,001,2025-04-11_11h15.14.301,posner_endo_new1,2024.2.4,60.105003439383694,2025-04-11 11h15.21.142725 +0100,
cube_r.png,0.1,0.31,valid,39,39,0,down,7.915136999989045,None,space,0.3746297999896342,None,,,,,0,39,39,39,,,,,366.3856142000004,,,,,,,,,,,,,366.36953870000434,366.3856142000004,366.3856142000004,366.3856142000004,374.31145589999505,,,,374.3204235000012,374.3326381000079,374.3326381000079,374.3777737000055,374.3784367000044,374.39409319999686,374.39409319999686,374.39409319999686,374.4607293000008,374.77950590000546,,,,,,,,down,7.915136999989045,None,space,0.3746297999896342,None,,,,,,,,,,,,,,,P150,001,2025-04-11_11h15.14.301,posner_endo_new1,2024.2.4,60.105003439383694,2025-04-11 11h15.21.142725 +0100,
cube_l.png,0.1,0.31,invalid,40,40,0,down,7.067125300003681,None,space,0.42714739999792073,None,,,,,0,40,40,40,,,,,374.79378639999777,,,,,,,,,,,,,374.7800963000045,374.79378639999777,374.79378639999777,374.79378639999777,381.8720600000088,,,,381.89452660000825,381.9067372999998,381.9067372999998,381.9359229999973,381.9363119000045,381.9524007,381.9524007,381.9524007,382.0356549999997,382.3868485999992,,,,,,,,down,7.067125300003681,None,space,0.42714739999792073,None,,,,,,,,,,,,,,,P150,001,2025-04-11_11h15.14.301,posner_endo_new1,2024.2.4,60.105003439383694,2025-04-11 11h15.21.142725 +0100,
cube_l.png,0.1,10,catch,41,41,0,down,6.162342900002841,None,None,,,,,,,0,41,41,41,,,,,382.40193599999475,,,,,,,,,,,,,382.38716790000035,382.40193599999475,382.40193599999475,382.40193599999475,388.5803372000082,,,,388.5926480000053,388.60270400000445,388.60270400000445,388.64574049999646,388.64613150000514,388.6621621000086,388.6621621000086,388.6621621000086,388.7454461000016,391.66020800000115,,,,390.7600543000008,391.6762153000018,391.6762153000018,391.6762153000018,down,6.162342900002841,None,None,,,,,,,,,,,,,,,,,P150,001,2025-04-11_11h15.14.301,posner_endo_new1,2024.2.4,60.105003439383694,2025-04-11 11h15.21.142725 +0100,
cube_l.png,0.1,-0.31,valid,42,42,0,down,2.7680861999979243,None,space,0.4132184000045527,None,,,,,0,42,42,42,,,,,391.6762153000018,,,,,,,,,,,,,391.66041300000506,391.6762153000018,391.6762153000018,391.6762153000018,394.4576159999997,,,,394.465718499996,394.47622660000343,394.47622660000343,394.5235209999955,394.52406589999737,394.5399225000001,394.5399225000001,394.5399225000001,394.6231403999991,394.9582211000088,,,,,,,,down,2.7680861999979243,None,space,0.4132184000045527,None,,,,,,,,,,,,,,,P150,001,2025-04-11_11h15.14.301,posner_endo_new1,2024.2.4,60.105003439383694,2025-04-11 11h15.21.142725 +0100,
cube_l.png,0.1,10,catch,43,43,0,down,5.776112699997611,None,None,,,,,,,0,43,43,43,,,,,394.9728016000008,,,,,,,,,,,,,394.95868209999753,394.9728016000008,394.9728016000008,394.9728016000008,400.7522423000046,,,,400.7700029999978,400.78175350000674,400.78175350000674,400.81701529999555,400.8173150000075,400.83358520000183,400.83358520000183,400.83358520000183,400.91681609999796,403.831199799999,,,,402.9314438000001,403.84718710000743,403.84718710000743,403.84718710000743,down,5.776112699997611,None,None,,,,,,,,,,,,,,,,,P150,001,2025-04-11_11h15.14.301,posner_endo_new1,2024.2.4,60.105003439383694,2025-04-11 11h15.21.142725 +0100,
cube_l.png,0.1,0.31,invalid,44,44,0,down,0.6611048000049777,None,space,1.0223599000019021,None,,,,,0,44,44,44,,,,,403.84718710000743,,,,,,,,,,,,,403.83143000000564,403.84718710000743,403.84718710000743,403.84718710000743,404.51502269999764,,,,404.5328305000003,404.5442108999996,404.5442108999996,404.5798642000009,404.5803971999994,404.5962889000075,404.5962889000075,404.5962889000075,404.67951630000607,405.6304506000015,,,,,,,,down,0.6611048000049777,None,space,1.0223599000019021,None,,,,,,,,,,,,,,,P150,001,2025-04-11_11h15.14.301,posner_endo_new1,2024.2.4,60.105003439383694,2025-04-11 11h15.21.142725 +0100,
cube_l.png,0.1,0.31,invalid,45,45,0,down,4.51103160000639,None,space,0.5492499999963911,None,,,,,0,45,45,45,,,,,405.6452098000009,,,,,,,,,,,,,405.6309201999975,405.6452098000009,405.6452098000009,405.6452098000009,410.1592663000047,,,,410.1771133000002,410.1884085000056,410.1884085000056,410.22421210000175,410.22454870000365,410.2405926000065,410.2405926000065,410.2405926000065,410.3239302000002,410.79134150000755,,,,,,,,down,4.51103160000639,None,space,0.5492499999963911,None,,,,,,,,,,,,,,,P150,001,2025-04-11_11h15.14.301,posner_endo_new1,2024.2.4,60.105003439383694,2025-04-11 11h15.21.142725 +0100,
cube_r.png,0.1,0.31,valid,46,46,0,down,5.9337583000015,None,space,0.33745860001363326,None,,,,,0,46,46,46,,,,,410.80664180000895,,,,,,,,,,,,,410.7916303999955,410.80664180000895,410.80664180000895,410.80664180000895,416.7523368999973,,,,416.77015470000333,416.7814545000001,416.7814545000001,416.81736879999517,416.81789829999616,416.83374000000185,416.83374000000185,416.83374000000185,416.91699720000906,417.1853080000001,,,,,,,,down,5.9337583000015,None,space,0.33745860001363326,None,,,,,,,,,,,,,,,P150,001,2025-04-11_11h15.14.301,posner_endo_new1,2024.2.4,60.105003439383694,2025-04-11 11h15.21.142725 +0100,
cube_l.png,0.1,-0.31,valid,47,47,0,down,7.172251700001652,None,space,0.44376359999296255,None,,,,,0,47,47,47,,,,,417.2000304999965,,,,,,,,,,,,,417.1857652000035,417.2000304999965,417.2000304999965,417.2000304999965,424.378085999997,,,,424.39631029999873,424.40772339999967,424.40772339999967,424.44284050000715,424.44339640000544,424.45929230000183,424.45929230000183,424.45929230000183,424.54253659999813,424.91087560000597,,,,,,,,down,7.172251700001652,None,space,0.44376359999296255,None,,,,,,,,,,,,,,,P150,001,2025-04-11_11h15.14.301,posner_endo_new1,2024.2.4,60.105003439383694,2025-04-11 11h15.21.142725 +0100,
cube_r.png,0.1,-0.31,invalid,48,48,0,down,6.607155300007435,None,space,0.5008128000044962,None,,,,,0,48,48,48,,,,,424.92544649999763,,,,,,,,,,,,,424.9113517000078,424.92544649999763,424.92544649999763,424.92544649999763,431.5368404000037,,,,431.54790210000647,431.5582110999967,431.5582110999967,431.60223220000626,431.6025746999949,431.61876110000594,431.61876110000594,431.61876110000594,431.7021453000052,432.13602610000817,,,,,,,,down,6.607155300007435,None,space,0.5008128000044962,None,,,,,,,,,,,,,,,P150,001,2025-04-11_11h15.14.301,posner_endo_new1,2024.2.4,60.105003439383694,2025-04-11 11h15.21.142725 +0100,
cube_r.png,0.1,10,catch,49,49,0,down,6.606535099999746,None,None,,,,,,,0,49,49,49,,,,,432.15143979999993,,,,,,,,,,,,,432.1363083000033,432.15143979999993,432.15143979999993,432.15143979999993,438.7627128000022,,,,438.77382440000656,438.7842681000038,438.7842681000038,438.82832380000036,438.8286597999977,438.8445267000061,438.8445267000061,438.8445267000061,438.92795009999827,441.84239190000517,,,,440.94241350000084,441.85827870000503,441.85827870000503,441.85827870000503,down,6.606535099999746,None,None,,,,,,,,,,,,,,,,,P150,001,2025-04-11_11h15.14.301,posner_endo_new1,2024.2.4,60.105003439383694,2025-04-11 11h15.21.142725 +0100,
cube_l.png,0.1,-0.31,valid,50,50,0,down,3.7309763000084786,None,space,0.4334338999906322,None,,,,,0,50,50,50,,,,,441.85827870000503,,,,,,,,,,,,,441.84265619999496,441.85827870000503,441.85827870000503,441.85827870000503,445.6056946000026,,,,445.616964300003,445.62704320000194,445.62704320000194,445.6712264999951,445.67156160000013,445.6875941000035,445.6875941000035,445.6875941000035,445.7708386000013,446.1222160000034,,,,,,,,down,3.7309763000084786,None,space,0.4334338999906322,None,,,,,,,,,,,,,,,P150,001,2025-04-11_11h15.14.301,posner_endo_new1,2024.2.4,60.105003439383694,2025-04-11 11h15.21.142725 +0100,
cube_l.png,0.1,-0.31,valid,51,51,0,down,5.731859599996824,None,space,0.4441397000045981,None,,,,,0,51,51,51,,,,,446.1372219000041,,,,,,,,,,,,,446.12250470000436,446.1372219000041,446.1372219000041,446.1372219000041,451.8823765999987,,,,451.89364449999994,451.9040047000017,451.9040047000017,451.94802300000447,451.9483618999948,451.96458240000356,451.96458240000356,451.96458240000356,452.0477804999973,452.4153316000011,,,,,,,,down,5.731859599996824,None,space,0.4441397000045981,None,,,,,,,,,,,,,,,P150,001,2025-04-11_11h15.14.301,posner_endo_new1,2024.2.4,60.105003439383694,2025-04-11 11h15.21.142725 +0100,
cube_r.png,0.1,-0.31,invalid,52,52,0,down,12.677146799993352,None,space,0.44478029999299906,None,,,,,0,52,52,52,,,,,452.43094479999854,,,,,,,,,,,,,452.41561890000594,452.43094479999854,452.43094479999854,452.43094479999854,465.1188697000034,,,,465.13005859999976,465.1403935999988,465.1403935999988,465.18456540000625,465.1849141999992,465.2011349999957,465.2011349999957,465.2011349999957,465.2842936000088,465.6518737000006,,,,,,,,down,12.677146799993352,None,space,0.44478029999299906,None,,,,,,,,,,,,,,,P150,001,2025-04-11_11h15.14.301,posner_endo_new1,2024.2.4,60.105003439383694,2025-04-11 11h15.21.142725 +0100,
cube_l.png,0.1,-0.31,valid,53,53,0,down,5.593768500009901,None,space,0.4758529999962775,None,,,,,0,53,53,53,,,,,465.66721240000334,,,,,,,,,,,,,465.6521623000008,465.66721240000334,465.66721240000334,465.66721240000334,471.2627691999951,,,,471.27400790000684,471.28444730000047,471.28444730000047,471.32833269999537,471.3286759000039,471.3447653000039,471.3447653000039,471.3447653000039,471.42814020000515,471.82858329999726,,,,,,,,down,5.593768500009901,None,space,0.4758529999962775,None,,,,,,,,,,,,,,,P150,001,2025-04-11_11h15.14.301,posner_endo_new1,2024.2.4,60.105003439383694,2025-04-11 11h15.21.142725 +0100,
cube_r.png,0.1,10,catch,54,54,0,down,5.800525700004073,None,None,,,,,,,0,54,54,54,,,,,471.84421710000606,,,,,,,,,,,,,471.82887359999586,471.84421710000606,471.84421710000606,471.84421710000606,477.6561897000065,,,,477.6673123000073,477.677754999997,477.677754999997,477.7216436000017,477.7219843000057,477.7382432000013,477.7382432000013,477.7382432000013,477.82147039999836,480.73585399999865,,,,479.8361439,480.7517272999976,480.7517272999976,480.7517272999976,down,5.800525700004073,None,None,,,,,,,,,,,,,,,,,P150,001,2025-04-11_11h15.14.301,posner_endo_new1,2024.2.4,60.105003439383694,2025-04-11 11h15.21.142725 +0100,
cube_l.png,0.1,0.31,invalid,55,55,0,down,1.7565605999989202,None,space,0.45708920000470243,None,,,,,0,55,55,55,,,,,480.7517272999976,,,,,,,,,,,,,480.73612370000046,480.7517272999976,480.7517272999976,480.7517272999976,482.5176594000077,,,,482.5282794000086,482.5378331999964,482.5378331999964,482.5832914000057,482.5835187000048,482.5998352000024,482.5998352000024,482.5998352000024,482.6831630000088,483.06680709999637,,,,,,,,down,1.7565605999989202,None,space,0.45708920000470243,None,,,,,,,,,,,,,,,P150,001,2025-04-11_11h15.14.301,posner_endo_new1,2024.2.4,60.105003439383694,2025-04-11 11h15.21.142725 +0100,
cube_l.png,0.1,-0.31,valid,56,56,0,down,4.585714500004542,None,space,0.39079480001237243,None,,,,,0,56,56,56,,,,,483.08257440000307,,,,,,,,,,,,,483.06698479999613,483.08257440000307,483.08257440000307,483.08257440000307,487.6804869000043,,,,487.70220240000344,487.71434320000117,487.71434320000117,487.74426730000414,487.7446077000059,487.7610627999966,487.7610627999966,487.7610627999966,487.844625800004,488.16203069999756,,,,,,,,down,4.585714500004542,None,space,0.39079480001237243,None,,,,,,,,,,,,,,,P150,001,2025-04-11_11h15.14.301,posner_endo_new1,2024.2.4,60.105003439383694,2025-04-11 11h15.21.142725 +0100,
cube_r.png,0.1,0.31,valid,57,57,0,down,6.075249100002111,None,space,0.39491020000423305,None,,,,,0,57,57,57,,,,,488.1775933000026,,,,,,,,,,,,,488.1623108000058,488.1775933000026,488.1775933000026,488.1775933000026,494.2573184000066,,,,494.2792676999961,494.2917643999972,494.2917643999972,494.3208783000009,494.3212016000034,494.33744980000483,494.33744980000483,494.33744980000483,494.42111720000685,494.7402738999954,,,,,,,,down,6.075249100002111,None,space,0.39491020000423305,None,,,,,,,,,,,,,,,P150,001,2025-04-11_11h15.14.301,posner_endo_new1,2024.2.4,60.105003439383694,2025-04-11 11h15.21.142725 +0100,
cube_r.png,0.1,-0.31,invalid,58,58,0,down,5.38627699999779,None,space,0.428890399998636,None,,,,,0,58,58,58,,,,,494.75441429999773,,,,,,,,,,,,,494.74085729999933,494.75441429999773,494.75441429999773,494.75441429999773,500.15107590000844,,,,500.1703584000061,500.18085869999777,500.18085869999777,500.21499799999583,500.2154254000052,500.2314645000006,500.2314645000006,500.2314645000006,500.3146708999993,500.6659875000041,,,,,,,,down,5.38627699999779,None,space,0.428890399998636,None,,,,,,,,,,,,,,,P150,001,2025-04-11_11h15.14.301,posner_endo_new1,2024.2.4,60.105003439383694,2025-04-11 11h15.21.142725 +0100,
cube_l.png,0.1,0.31,invalid,59,59,0,down,7.091197600006126,None,space,0.5114783000026364,None,,,,,0,59,59,59,,,,,500.6810062000004,,,,,,,,,,,,,500.66635260000476,500.6810062000004,500.6810062000004,500.6810062000004,507.77543460000015,,,,507.7847258999973,507.7950822999992,507.7950822999992,507.84092280000914,507.84122660000867,507.8573468999966,507.8573468999966,507.8573468999966,507.9406592000014,508.37468989999616,,,,,,,,down,7.091197600006126,None,space,0.5114783000026364,None,,,,,,,,,,,,,,,P150,001,2025-04-11_11h15.14.301,posner_endo_new1,2024.2.4,60.105003439383694,2025-04-11 11h15.21.142725 +0100,
,,,,,,,,,,,,,,,,,,,,,,,,,,,,,,,,,,,,,,,,,,,,,,,,,,,,,,,,,,,,,,,,,,,,,508.3748513000028,508.3901993000036,508.3901993000036,568.3953085999965,622.9069270000036,space,114.51002620000509,None,,,,,,,P150,001,2025-04-11_11h15.14.301,posner_endo_new1,2024.2.4,60.105003439383694,2025-04-11 11h15.21.142725 +0100,
,,,,,,,,,,,,,,,,,,,,,,,,,,,,,,,,,,622.9069860000018,622.9229397000017,625.988715200001,625.9038937000005,,,,,,,,,,,,,,,,,,,,,,,,,,,,,,,,,,,,,,,,,,,,,,P150,001,2025-04-11_11h15.14.301,posner_endo_new1,2024.2.4,60.105003439383694,2025-04-11 11h15.21.142725 +0100,
cube_l.png,0.1,10,catch,0,0,0,up,27.071345999996993,None,None,,,,,,,,,,,0,0,0,0,625.988715200001,,,,,,,,,,,,,625.9804323999997,625.988715200001,625.988715200001,625.988715200001,653.076092400006,,,,653.0820493000065,653.0938126999972,653.0938126999972,653.1420734999992,653.1425705000001,653.1584819999989,653.1584819999989,653.1584819999989,653.2417453999951,656.156384300004,,,,655.2565187,656.1723356000002,656.1723356000002,656.1723356000002,,,,,,,,,,,,,,,up,27.071345999996993,None,None,,,P150,001,2025-04-11_11h15.14.301,posner_endo_new1,2024.2.4,60.105003439383694,2025-04-11 11h15.21.142725 +0100,
cube_l.png,0.1,10,catch,1,1,0,up,3.256210099993041,None,None,,,,,,,,,,,0,1,1,1,656.1723356000002,,,,,,,,,,,,,656.156655800005,656.1723356000002,656.1723356000002,656.1723356000002,659.4367723000032,,,,659.4478955999948,659.4581240999978,659.4581240999978,659.5022982000082,659.5026454000035,659.5188890999998,659.5188890999998,659.5188890999998,659.6020615000016,662.5166090999992,,,,661.616641200002,662.5325329000043,662.5325329000043,662.5325329000043,,,,,,,,,,,,,,,up,3.256210099993041,None,None,,,P150,001,2025-04-11_11h15.14.301,posner_endo_new1,2024.2.4,60.105003439383694,2025-04-11 11h15.21.142725 +0100,
cube_l.png,0.1,0.31,invalid,2,2,0,up,2.096989499987103,None,space,0.5056251999922097,None,,,,,,,,,0,2,2,2,662.5325329000043,,,,,,,,,,,,,662.5168806000001,662.5325329000043,662.5325329000043,662.5325329000043,664.6315483000071,,,,664.6426493000035,664.6529730000038,664.6529730000038,664.6970970999973,664.6974413999997,664.7135907000047,664.7135907000047,664.7135907000047,664.796820100004,665.2307572999998,,,,,,,,,,,,,,,,,,,,,,up,2.096989499987103,None,space,0.5056251999922097,None,P150,001,2025-04-11_11h15.14.301,posner_endo_new1,2024.2.4,60.105003439383694,2025-04-11 11h15.21.142725 +0100,
cube_l.png,0.1,0.31,invalid,3,3,0,up,6.029961300009745,None,space,0.3803352000104496,None,,,,,,,,,0,3,3,3,665.2463852000074,,,,,,,,,,,,,665.2310471999954,665.2463852000074,665.2463852000074,665.2463852000074,671.2908743000007,,,,671.296637899999,671.3082939000014,671.3082939000014,671.3568374000024,671.3570586999995,671.3733111000038,671.3733111000038,671.3733111000038,671.4399618000025,671.7572086,,,,,,,,,,,,,,,,,,,,,,up,6.029961300009745,None,space,0.3803352000104496,None,P150,001,2025-04-11_11h15.14.301,posner_endo_new1,2024.2.4,60.105003439383694,2025-04-11 11h15.21.142725 +0100,
cube_l.png,0.1,-0.31,valid,4,4,0,up,7.887175600000774,None,space,0.981905500011635,None,,,,,,,,,0,4,4,4,671.7732254000002,,,,,,,,,,,,,671.7573823999992,671.7732254000002,671.7732254000002,671.7732254000002,679.6656849999999,,,,679.6715665000083,679.6833590000024,679.6833590000024,679.7315854000044,679.7318128000043,679.7482925000077,679.7482925000077,679.7482925000077,679.814676199996,680.7313940000022,,,,,,,,,,,,,,,,,,,,,,up,7.887175600000774,None,space,0.981905500011635,None,P150,001,2025-04-11_11h15.14.301,posner_endo_new1,2024.2.4,60.105003439383694,2025-04-11 11h15.21.142725 +0100,
cube_r.png,0.1,-0.31,invalid,5,5,0,up,4.185928000006243,None,space,0.3937949999963166,None,,,,,,,,,0,5,5,5,680.7472188999964,,,,,,,,,,,,,680.7315655999992,680.7472188999964,680.7472188999964,680.7472188999964,684.9435662000033,,,,684.9493468000001,684.9608392000082,684.9608392000082,685.0095910000091,685.0098102000047,685.0259490000026,685.0259490000026,685.0259490000026,685.0926799000008,685.4263847999973,,,,,,,,,,,,,,,,,,,,,,up,4.185928000006243,None,space,0.3937949999963166,None,P150,001,2025-04-11_11h15.14.301,posner_endo_new1,2024.2.4,60.105003439383694,2025-04-11 11h15.21.142725 +0100,
cube_r.png,0.1,0.31,valid,6,6,0,up,3.186416199998348,None,space,0.7601927000068827,None,,,,,,,,,0,6,6,6,685.4423143000022,,,,,,,,,,,,,685.4265569999989,685.4423143000022,685.4423143000022,685.4423143000022,688.6397931999963,,,,688.6456158000074,688.6573631000065,688.6573631000065,688.7059097000019,688.7061313000013,688.7223593999952,688.7223593999952,688.7223593999952,688.7889815999952,689.4889933999948,,,,,,,,,,,,,,,,,,,,,,up,3.186416199998348,None,space,0.7601927000068827,None,P150,001,2025-04-11_11h15.14.301,posner_endo_new1,2024.2.4,60.105003439383694,2025-04-11 11h15.21.142725 +0100,
cube_r.png,0.1,-0.31,invalid,7,7,0,up,5.395250499990652,None,space,0.4498020000028191,None,,,,,,,,,0,7,7,7,689.5049031999952,,,,,,,,,,,,,689.4891662000009,689.5049031999952,689.5049031999952,689.5049031999952,694.9167236000067,,,,694.9227032000053,694.9343098999962,694.9343098999962,694.9827688000078,694.9829898000025,694.9991530999978,694.9991530999978,694.9991530999978,695.0657250000077,695.4496840000065,,,,,,,,,,,,,,,,,,,,,,up,5.395250499990652,None,space,0.4498020000028191,None,P150,001,2025-04-11_11h15.14.301,posner_endo_new1,2024.2.4,60.105003439383694,2025-04-11 11h15.21.142725 +0100,
cube_l.png,0.1,-0.31,valid,8,8,0,up,5.922829100003582,None,space,0.31335339999350253,None,,,,,,,,,0,8,8,8,695.4654911999969,,,,,,,,,,,,,695.4498550999997,695.4654911999969,695.4654911999969,695.4654911999969,701.3933348999999,,,,701.3990810999967,701.410815700001,701.410815700001,701.4593782000011,701.4596018000011,701.4760895000072,701.4760895000072,701.4760895000072,701.5425764999964,701.7931644000055,,,,,,,,,,,,,,,,,,,,,,up,5.922829100003582,None,space,0.31335339999350253,None,P150,001,2025-04-11_11h15.14.301,posner_endo_new1,2024.2.4,60.105003439383694,2025-04-11 11h15.21.142725 +0100,
cube_r.png,0.1,-0.31,invalid,9,9,0,up,5.372816900009639,None,space,0.36674779999884777,None,,,,,,,,,0,9,9,9,701.8090338000038,,,,,,,,,,,,,701.7933360000025,701.8090338000038,701.8090338000038,701.8090338000038,707.1877593999961,,,,707.1962069000001,707.2062814999954,707.2062814999954,707.2534297999955,707.2537089999969,707.2699195000023,707.2699195000023,707.2699195000023,707.3531176999968,707.6538694000046,,,,,,,,,,,,,,,,,,,,,,up,5.372816900009639,None,space,0.36674779999884777,None,P150,001,2025-04-11_11h15.14.301,posner_endo_new1,2024.2.4,60.105003439383694,2025-04-11 11h15.21.142725 +0100,
cube_l.png,0.1,0.31,invalid,10,10,0,up,4.551653800008353,None,space,0.3991964000015287,None,,,,,,,,,0,10,10,10,707.6694803999999,,,,,,,,,,,,,707.6541024000035,707.6694803999999,707.6694803999999,707.6694803999999,712.2325764999987,,,,712.2410421999957,712.2512758999947,712.2512758999947,712.2982192000054,712.2984972999984,712.3148531000043,712.3148531000043,712.3148531000043,712.398082300002,712.7155692000088,,,,,,,,,,,,,,,,,,,,,,up,4.551653800008353,None,space,0.3991964000015287,None,P150,001,2025-04-11_11h15.14.301,posner_endo_new1,2024.2.4,60.105003439383694,2025-04-11 11h15.21.142725 +0100,
cube_r.png,0.1,-0.31,invalid,11,11,0,up,5.954661099996883,None,space,0.33659519998764154,None,,,,,,,,,0,11,11,11,712.7309108000045,,,,,,,,,,,,,712.7158028999984,712.7309108000045,712.7309108000045,712.7309108000045,718.6925105999981,,,,718.7009657000017,718.7111375999957,718.7111375999957,718.7583775999956,718.7589168999984,718.7747803999955,718.7747803999955,718.7747803999955,718.8580583000003,719.126454600002,,,,,,,,,,,,,,,,,,,,,,up,5.954661099996883,None,space,0.33659519998764154,None,P150,001,2025-04-11_11h15.14.301,posner_endo_new1,2024.2.4,60.105003439383694,2025-04-11 11h15.21.142725 +0100,
cube_r.png,0.1,0.31,valid,12,12,0,up,5.751973700011149,None,space,0.3436138000106439,None,,,,,,,,,0,12,12,12,719.1411055000062,,,,,,,,,,,,,719.1269200999959,719.1411055000062,719.1411055000062,719.1411055000062,724.9031638000015,,,,724.914237799996,724.9246174,724.9246174,724.9687599000026,724.9691011999967,724.9852473000064,724.9852473000064,724.9852473000064,725.0685152000078,725.3360887000017,,,,,,,,,,,,,,,,,,,,,,up,5.751973700011149,None,space,0.3436138000106439,None,P150,001,2025-04-11_11h15.14.301,posner_endo_new1,2024.2.4,60.105003439383694,2025-04-11 11h15.21.142725 +0100,
cube_l.png,0.1,10,catch,13,13,0,up,8.21417950000614,None,space,0.336706599991885,None,,,,,,,,,0,13,13,13,725.3514790000045,,,,,,,,,,,,,725.336377700005,725.3514790000045,725.3514790000045,725.3514790000045,733.577457899999,,,,733.5885759999946,733.5989201000048,733.5989201000048,733.6431316999951,733.6434695000062,733.6597105999972,733.6597105999972,733.6597105999972,733.7429985000053,734.0103899999958,,,,,,,,,,,,,,,,,,,,,,up,8.21417950000614,None,space,0.336706599991885,None,P150,001,2025-04-11_11h15.14.301,posner_endo_new1,2024.2.4,60.105003439383694,2025-04-11 11h15.21.142725 +0100,
cube_r.png,0.1,-0.31,invalid,14,14,0,up,6.1952616999915335,None,space,0.4354767000040738,None,,,,,,,,,0,14,14,14,734.0260019999987,,,,,,,,,,,,,734.0106880999956,734.0260019999987,734.0260019999987,734.0260019999987,740.2373960999976,,,,740.2484888000035,740.258599000008,740.258599000008,740.3029975999962,740.3033426000038,740.3196654000058,740.3196654000058,740.3196654000058,740.4027526999998,740.7701601000008,,,,,,,,,,,,,,,,,,,,,,up,6.1952616999915335,None,space,0.4354767000040738,None,P150,001,2025-04-11_11h15.14.301,posner_endo_new1,2024.2.4,60.105003439383694,2025-04-11 11h15.21.142725 +0100,
cube_l.png,0.1,-0.31,valid,15,15,0,up,5.995092400000431,None,space,0.7598937000002479,None,,,,,,,,,0,15,15,15,740.7857153000077,,,,,,,,,,,,,740.7704483999987,740.7857153000077,740.7857153000077,740.7857153000077,746.7973205000017,,,,746.8083761000016,746.8184561999951,746.8184561999951,746.8630319000076,746.8633706999972,746.8794151000038,746.8794151000038,746.8794151000038,746.9627301,747.6464172999986,,,,,,,,,,,,,,,,,,,,,,up,5.995092400000431,None,space,0.7598937000002479,None,P150,001,2025-04-11_11h15.14.301,posner_endo_new1,2024.2.4,60.105003439383694,2025-04-11 11h15.21.142725 +0100,
cube_r.png,0.1,10,catch,16,16,0,up,5.270839800010435,None,None,,,,,,,,,,,0,16,16,16,747.6619020000071,,,,,,,,,,,,,747.646704800005,747.6619020000071,747.6619020000071,747.6619020000071,752.9417694000003,,,,752.9595709999994,752.9708498999971,752.9708498999971,753.0066520999972,753.006977099998,753.0231860000058,753.0231860000058,753.0231860000058,753.1064791999961,756.0207700000028,,,,755.1210357999953,756.0367854000069,756.0367854000069,756.0367854000069,,,,,,,,,,,,,,,up,5.270839800010435,None,None,,,P150,001,2025-04-11_11h15.14.301,posner_endo_new1,2024.2.4,60.105003439383694,2025-04-11 11h15.21.142725 +0100,
cube_r.png,0.1,10,catch,17,17,0,up,3.176097599993227,None,None,,,,,,,,,,,0,17,17,17,756.0367854000069,,,,,,,,,,,,,756.0210286000074,756.0367854000069,756.0367854000069,756.0367854000069,759.2179988999997,,,,759.2291207000089,759.2393526999949,759.2393526999949,759.2836337000044,759.2839761000068,759.3000733000081,759.3000733000081,759.3000733000081,759.383404200009,762.2977492000064,,,,761.3979476999957,762.3136196999985,762.3136196999985,762.3136196999985,,,,,,,,,,,,,,,up,3.176097599993227,None,None,,,P150,001,2025-04-11_11h15.14.301,posner_endo_new1,2024.2.4,60.105003439383694,2025-04-11 11h15.21.142725 +0100,
cube_l.png,0.1,0.31,invalid,18,18,0,up,3.074952900002245,None,space,0.43427470000460744,None,,,,,,,,,0,18,18,18,762.3136196999985,,,,,,,,,,,,,762.2980164000037,762.3136196999985,762.3136196999985,762.3136196999985,765.3949479000003,,,,765.4060596000054,765.4164391999948,765.4164391999948,765.4605757999961,765.4609231000068,765.4770415999956,765.4770415999956,765.4770415999956,765.5602433000022,765.9279778000055,,,,,,,,,,,,,,,,,,,,,,up,3.074952900002245,None,space,0.43427470000460744,None,P150,001,2025-04-11_11h15.14.301,posner_endo_new1,2024.2.4,60.105003439383694,2025-04-11 11h15.21.142725 +0100,
cube_l.png,0.1,10,catch,19,19,0,up,9.269641000006231,None,None,,,,,,,,,,,0,19,19,19,765.9433458999993,,,,,,,,,,,,,765.9282695000002,765.9433458999993,765.9433458999993,765.9433458999993,775.2183328999963,,,,775.2294235000008,775.2396781999996,775.2396781999996,775.2837900000013,775.2841346000059,775.3004635999969,775.3004635999969,775.3004635999969,775.383557299996,778.2980968000047,,,,777.398223199998,778.3139763000072,778.3139763000072,778.3139763000072,,,,,,,,,,,,,,,up,9.269641000006231,None,None,,,P150,001,2025-04-11_11h15.14.301,posner_endo_new1,2024.2.4,60.105003439383694,2025-04-11 11h15.21.142725 +0100,
cube_l.png,0.1,0.31,invalid,20,20,0,up,2.778254199991352,None,space,0.4840459999977611,None,,,,,,,,,0,20,20,20,778.3139763000072,,,,,,,,,,,,,778.2983682000049,778.3139763000072,778.3139763000072,778.3139763000072,781.0955918999971,,,,781.106844000009,781.1171697999962,781.1171697999962,781.1612954000011,781.1616326000076,781.1777516000002,781.1777516000002,781.1777516000002,781.2609822999948,781.6784371999966,,,,,,,,,,,,,,,,,,,,,,up,2.778254199991352,None,space,0.4840459999977611,None,P150,001,2025-04-11_11h15.14.301,posner_endo_new1,2024.2.4,60.105003439383694,2025-04-11 11h15.21.142725 +0100,
cube_l.png,0.1,-0.31,valid,21,21,0,up,5.159461699993699,None,space,0.36050389999581967,None,,,,,,,,,0,21,21,21,781.6938660000014,,,,,,,,,,,,,781.6787552000023,781.6938660000014,781.6938660000014,781.6938660000014,786.8564532000019,,,,786.8676364999992,786.8779108000017,786.8779108000017,786.9219553000003,786.9222985000088,786.938527300008,786.938527300008,786.938527300008,787.0216311999975,787.3058003000042,,,,,,,,,,,,,,,,,,,,,,up,5.159461699993699,None,space,0.36050389999581967,None,P150,001,2025-04-11_11h15.14.301,posner_endo_new1,2024.2.4,60.105003439383694,2025-04-11 11h15.21.142725 +0100,
cube_r.png,0.1,0.31,valid,22,22,0,up,6.418677800000296,None,space,0.4223694999964209,None,,,,,,,,,0,22,22,22,787.3214446000056,,,,,,,,,,,,,787.3060960000003,787.3214446000056,787.3214446000056,787.3214446000056,793.7494449000078,,,,793.7607127000083,793.771121800004,793.771121800004,793.8147935000015,793.8151477000065,793.831491200006,793.831491200006,793.831491200006,793.9146647000016,794.2654750000074,,,,,,,,,,,,,,,,,,,,,,up,6.418677800000296,None,space,0.4223694999964209,None,P150,001,2025-04-11_11h15.14.301,posner_endo_new1,2024.2.4,60.105003439383694,2025-04-11 11h15.21.142725 +0100,
cube_r.png,0.1,-0.31,invalid,23,23,0,up,5.491590699995868,None,space,0.3675630000070669,None,,,,,,,,,0,23,23,23,794.2808313999994,,,,,,,,,,,,,794.2657693000074,794.2808313999994,794.2808313999994,794.2808313999994,799.7769383999985,,,,799.7880424000032,799.7983277000021,799.7983277000021,799.8420291000075,799.8423747000052,799.8584790000023,799.8584790000023,799.8584790000023,799.9418252000032,800.242828100003,,,,,,,,,,,,,,,,,,,,,,up,5.491590699995868,None,space,0.3675630000070669,None,P150,001,2025-04-11_11h15.14.301,posner_endo_new1,2024.2.4,60.105003439383694,2025-04-11 11h15.21.142725 +0100,
cube_r.png,0.1,0.31,valid,24,24,0,up,5.353862699994352,None,space,0.42205409999587573,None,,,,,,,,,0,24,24,24,800.2583634000039,,,,,,,,,,,,,800.2431335000001,800.2583634000039,800.2583634000039,800.2583634000039,805.6207193000009,,,,805.6297113000037,805.6395218999969,805.6395218999969,805.6859837000084,805.686226699996,805.7026787000068,805.7026787000068,805.7026787000068,805.7858725999977,806.1363686999975,,,,,,,,,,,,,,,,,,,,,,up,5.353862699994352,None,space,0.42205409999587573,None,P150,001,2025-04-11_11h15.14.301,posner_endo_new1,2024.2.4,60.105003439383694,2025-04-11 11h15.21.142725 +0100,
cube_r.png,0.1,-0.31,invalid,25,25,0,up,3.9885082000109833,None,space,0.41045450000092387,None,,,,,,,,,0,25,25,25,806.1521674999967,,,,,,,,,,,,,806.1365608000051,806.1521674999967,806.1521674999967,806.1521674999967,810.1486757999955,,,,810.1552733999997,810.1675093999947,810.1675093999947,810.2147956999979,810.2153306999971,810.2311601999972,810.2311601999972,810.2311601999972,810.2977874000062,810.6493467999971,,,,,,,,,,,,,,,,,,,,,,up,3.9885082000109833,None,space,0.41045450000092387,None,P150,001,2025-04-11_11h15.14.301,posner_endo_new1,2024.2.4,60.105003439383694,2025-04-11 11h15.21.142725 +0100,
cube_l.png,0.1,-0.31,valid,26,26,0,up,5.860795799992047,None,space,0.3245077999890782,None,,,,,,,,,0,26,26,26,810.6640583999979,,,,,,,,,,,,,810.6498255000042,810.6640583999979,810.6640583999979,810.6640583999979,816.5268431000004,,,,816.5446114000079,816.5554383999988,816.5554383999988,816.5916292000038,816.5919604000082,816.6080445999978,816.6080445999978,816.6080445999978,816.6913382000057,816.9422447999968,,,,,,,,,,,,,,,,,,,,,,up,5.860795799992047,None,space,0.3245077999890782,None,P150,001,2025-04-11_11h15.14.301,posner_endo_new1,2024.2.4,60.105003439383694,2025-04-11 11h15.21.142725 +0100,
cube_r.png,0.1,0.31,valid,27,27,0,up,6.022849300003145,None,space,0.3134882000013022,None,,,,,,,,,0,27,27,27,816.9578429999965,,,,,,,,,,,,,816.9425304000033,816.9578429999965,816.9578429999965,816.9578429999965,822.986673899999,,,,823.0044325000054,823.015710599997,823.015710599997,823.0516720000014,823.052205,823.0680262999958,823.0680262999958,823.0680262999958,823.1513064000028,823.386436300003,,,,,,,,,,,,,,,,,,,,,,up,6.022849300003145,None,space,0.3134882000013022,None,P150,001,2025-04-11_11h15.14.301,posner_endo_new1,2024.2.4,60.105003439383694,2025-04-11 11h15.21.142725 +0100,
cube_r.png,0.1,10,catch,28,28,0,up,5.291846000007354,None,None,,,,,,,,,,,0,28,28,28,823.4010418999969,,,,,,,,,,,,,823.3869161000039,823.4010418999969,823.4010418999969,823.4010418999969,828.6977598000085,,,,828.7160101000045,828.7273204000085,828.7273204000085,828.7626006000064,828.7629427000065,828.7789383000054,828.7789383000054,828.7789383000054,828.8622978000058,831.7766299000068,,,,830.8769050999981,831.7926220000081,831.7926220000081,831.7926220000081,,,,,,,,,,,,,,,up,5.291846000007354,None,None,,,P150,001,2025-04-11_11h15.14.301,posner_endo_new1,2024.2.4,60.105003439383694,2025-04-11 11h15.21.142725 +0100,
cube_r.png,0.1,0.31,valid,29,29,0,up,4.244723200012231,None,space,0.4324460999923758,None,,,,,,,,,0,29,29,29,831.7926220000081,,,,,,,,,,,,,831.7768973000057,831.7926220000081,831.7926220000081,831.7926220000081,836.0394772,,,,836.0492346999963,836.0590026999998,836.0590026999998,836.1050294000015,836.1052638999972,836.1213313000044,836.1213313000044,836.1213313000044,836.2047240999964,836.555382400009,,,,,,,,,,,,,,,,,,,,,,up,4.244723200012231,None,space,0.4324460999923758,None,P150,001,2025-04-11_11h15.14.301,posner_endo_new1,2024.2.4,60.105003439383694,2025-04-11 11h15.21.142725 +0100,
cube_r.png,0.1,0.31,valid,30,30,0,up,6.265443099997356,None,space,0.37571379999280907,None,,,,,,,,,0,30,30,30,836.5710110000073,,,,,,,,,,,,,836.555572600002,836.5710110000073,836.5710110000073,836.5710110000073,842.8487716999953,,,,842.8554481000028,842.8669769999979,842.8669769999979,842.9144783000083,842.9147112000064,842.9310886000021,842.9310886000021,842.9310886000021,842.9976569999999,843.314821100008,,,,,,,,,,,,,,,,,,,,,,up,6.265443099997356,None,space,0.37571379999280907,None,P150,001,2025-04-11_11h15.14.301,posner_endo_new1,2024.2.4,60.105003439383694,2025-04-11 11h15.21.142725 +0100,
cube_l.png,0.1,-0.31,valid,31,31,0,up,5.265659300013795,None,space,0.3496251000033226,None,,,,,,,,,0,31,31,31,843.3308221000043,,,,,,,,,,,,,843.3150044000067,843.3308221000043,843.3308221000043,843.3308221000043,848.6092908999999,,,,848.616502600009,848.6282446999976,848.6282446999976,848.6754243000032,848.6760074000049,848.691844800007,848.691844800007,848.691844800007,848.7584310999955,849.0435652000015,,,,,,,,,,,,,,,,,,,,,,up,5.265659300013795,None,space,0.3496251000033226,None,P150,001,2025-04-11_11h15.14.301,posner_endo_new1,2024.2.4,60.105003439383694,2025-04-11 11h15.21.142725 +0100,
cube_r.png,0.1,0.31,valid,32,32,0,up,7.178581200001645,None,space,0.35746410000137985,None,,,,,,,,,0,32,32,32,849.0581295000011,,,,,,,,,,,,,849.0440650000091,849.0581295000011,849.0581295000011,849.0581295000011,856.2527072000084,,,,856.2706884000072,856.2819635000051,856.2819635000051,856.3176213999977,856.3181532000017,856.3339927000052,856.3339927000052,856.3339927000052,856.417260999995,856.7023606000002,,,,,,,,,,,,,,,,,,,,,,up,7.178581200001645,None,space,0.35746410000137985,None,P150,001,2025-04-11_11h15.14.301,posner_endo_new1,2024.2.4,60.105003439383694,2025-04-11 11h15.21.142725 +0100,
cube_r.png,0.1,-0.31,invalid,33,33,0,up,8.967383800001699,None,space,0.514095400008955,None,,,,,,,,,0,33,33,33,856.7169301999966,,,,,,,,,,,,,856.702856200005,856.7169301999966,856.7169301999966,856.7169301999966,865.6929453000048,,,,865.7106867999973,865.7225633000053,865.7225633000053,865.7579953999957,865.7582990000083,865.774932100001,865.774932100001,865.774932100001,865.8577756000013,866.291744999995,,,,,,,,,,,,,,,,,,,,,,up,8.967383800001699,None,space,0.514095400008955,None,P150,001,2025-04-11_11h15.14.301,posner_endo_new1,2024.2.4,60.105003439383694,2025-04-11 11h15.21.142725 +0100,
cube_r.png,0.1,10,catch,34,34,0,up,9.377228299999842,None,None,,,,,,,,,,,0,34,34,34,866.3073320999974,,,,,,,,,,,,,866.2919986000052,866.3073320999974,866.3073320999974,866.3073320999974,875.6994193999999,,,,875.7171798000054,875.7285424000002,875.7285424000002,875.764549200001,875.7648864000075,875.7808698000008,875.7808698000008,875.7808698000008,875.8641738000006,878.7788461000018,,,,877.8786107000051,878.7944071999955,878.7944071999955,878.7944071999955,,,,,,,,,,,,,,,up,9.377228299999842,None,None,,,P150,001,2025-04-11_11h15.14.301,posner_endo_new1,2024.2.4,60.105003439383694,2025-04-11 11h15.21.142725 +0100,
cube_r.png,0.1,0.31,valid,35,35,0,up,3.0027913999947486,None,space,0.4077016000082949,None,,,,,,,,,0,35,35,35,878.7944071999955,,,,,,,,,,,,,878.7792869999976,878.7944071999955,878.7944071999955,878.7944071999955,881.8098047999956,,,,881.827097500005,881.8374631000042,881.8374631000042,881.8748489999998,881.8751913000015,881.891325500008,881.891325500008,881.891325500008,881.9746214000043,882.3089042000065,,,,,,,,,,,,,,,,,,,,,,up,3.0027913999947486,None,space,0.4077016000082949,None,P150,001,2025-04-11_11h15.14.301,posner_endo_new1,2024.2.4,60.105003439383694,2025-04-11 11h15.21.142725 +0100,
cube_r.png,0.1,-0.31,invalid,36,36,0,up,3.8080843999923673,None,space,0.3958561000035843,None,,,,,,,,,0,36,36,36,882.3241898999986,,,,,,,,,,,,,882.3092021000048,882.3241898999986,882.3241898999986,882.3241898999986,886.1388437999994,,,,886.1565705999965,886.1680510000006,886.1680510000006,886.2036439000076,886.2041828000074,886.2200976000022,886.2200976000022,886.2200976000022,886.3033854999958,886.6217330000072,,,,,,,,,,,,,,,,,,,,,,up,3.8080843999923673,None,space,0.3958561000035843,None,P150,001,2025-04-11_11h15.14.301,posner_endo_new1,2024.2.4,60.105003439383694,2025-04-11 11h15.21.142725 +0100,
cube_l.png,0.1,0.31,invalid,37,37,0,up,5.53674989999854,None,space,0.4967391999962274,None,,,,,,,,,0,37,37,37,886.6363352000044,,,,,,,,,,,,,886.6222099000006,886.6363352000044,886.6363352000044,886.6363352000044,892.1818449999992,,,,892.1929855000053,892.2034436999966,892.2034436999966,892.2475073999958,892.247849300009,892.2640518999979,892.2640518999979,892.2640518999979,892.3472029999975,892.7647307000007,,,,,,,,,,,,,,,,,,,,,,up,5.53674989999854,None,space,0.4967391999962274,None,P150,001,2025-04-11_11h15.14.301,posner_endo_new1,2024.2.4,60.105003439383694,2025-04-11 11h15.21.142725 +0100,
cube_l.png,0.1,0.31,invalid,38,38,0,up,5.952258499994059,None,space,0.4081710999889765,None,,,,,,,,,0,38,38,38,892.7800920000009,,,,,,,,,,,,,892.7650233000022,892.7800920000009,892.7800920000009,892.7800920000009,898.7419254999986,,,,898.7503394000087,898.7603295000008,898.7603295000008,898.8076099000027,898.8078480999975,898.8239179000084,898.8239179000084,898.8239179000084,898.9072301999986,899.2408924000047,,,,,,,,,,,,,,,,,,,,,,up,5.952258499994059,None,space,0.4081710999889765,None,P150,001,2025-04-11_11h15.14.301,posner_endo_new1,2024.2.4,60.105003439383694,2025-04-11 11h15.21.142725 +0100,
cube_r.png,0.1,0.31,valid,39,39,0,up,5.716137399998843,None,space,0.3679905000026338,None,,,,,,,,,0,39,39,39,899.2568889999966,,,,,,,,,,,,,899.2410862999968,899.2568889999966,899.2568889999966,899.2568889999966,904.9860861000052,,,,905.0038271000085,905.015134900008,905.015134900008,905.0510966000002,905.0513952000038,905.0676420000091,905.0676420000091,905.0676420000091,905.1508348000061,905.4515869000024,,,,,,,,,,,,,,,,,,,,,,up,5.716137399998843,None,space,0.3679905000026338,None,P150,001,2025-04-11_11h15.14.301,posner_endo_new1,2024.2.4,60.105003439383694,2025-04-11 11h15.21.142725 +0100,
cube_l.png,0.1,0.31,invalid,40,40,0,up,6.089042599996901,None,space,0.40294539999740664,None,,,,,,,,,0,40,40,40,905.4672729000013,,,,,,,,,,,,,905.4518381000089,905.4672729000013,905.4672729000013,905.4672729000013,911.5619530999975,,,,911.5711698999949,911.5814499999979,911.5814499999979,911.6277040999994,911.6280058999982,911.6442573999957,911.6442573999957,911.6442573999957,911.7275109000038,912.0622383000009,,,,,,,,,,,,,,,,,,,,,,up,6.089042599996901,None,space,0.40294539999740664,None,P150,001,2025-04-11_11h15.14.301,posner_endo_new1,2024.2.4,60.105003439383694,2025-04-11 11h15.21.142725 +0100,
cube_l.png,0.1,10,catch,41,41,0,up,5.647352200001478,None,None,,,,,,,,,,,0,41,41,41,912.0769818999979,,,,,,,,,,,,,912.062717199995,912.0769818999979,912.0769818999979,912.0769818999979,917.7400151000038,,,,917.7577590000001,917.7694421000051,917.7694421000051,917.8047636999981,917.8050643000024,917.821133400008,917.821133400008,917.821133400008,917.9045819000021,920.8191166000033,,,,919.9189528999996,920.8346845000051,920.8346845000051,920.8346845000051,,,,,,,,,,,,,,,up,5.647352200001478,None,None,,,P150,001,2025-04-11_11h15.14.301,posner_endo_new1,2024.2.4,60.105003439383694,2025-04-11 11h15.21.142725 +0100,
cube_l.png,0.1,-0.31,valid,42,42,0,up,1.7622668999974849,None,space,0.3987660999991931,None,,,,,,,,,0,42,42,42,920.8346845000051,,,,,,,,,,,,,920.8195739000075,920.8346845000051,920.8346845000051,920.8346845000051,922.6017756000074,,,,922.6195937000011,922.6313635999977,922.6313635999977,922.6664319999982,922.6667319999979,922.6828550000064,922.6828550000064,922.6828550000064,922.766188499998,923.0837090999994,,,,,,,,,,,,,,,,,,,,,,up,1.7622668999974849,None,space,0.3987660999991931,None,P150,001,2025-04-11_11h15.14.301,posner_endo_new1,2024.2.4,60.105003439383694,2025-04-11 11h15.21.142725 +0100,
cube_l.png,0.1,10,catch,43,43,0,up,5.017712000000756,None,space,0.3418921999982558,None,,,,,,,,,0,43,43,43,923.0992013000068,,,,,,,,,,,,,923.0839611999982,923.0992013000068,923.0992013000068,923.0992013000068,928.1290362,,,,928.1465029999963,928.1568073999952,928.1568073999952,928.1941675999988,928.1945050000068,928.2106610000046,928.2106610000046,928.2106610000046,928.2939827000082,928.5613438,,,,,,,,,,,,,,,,,,,,,,up,5.017712000000756,None,space,0.3418921999982558,None,P150,001,2025-04-11_11h15.14.301,posner_endo_new1,2024.2.4,60.105003439383694,2025-04-11 11h15.21.142725 +0100,
cube_l.png,0.1,0.31,invalid,44,44,0,up,5.2677579000010155,None,space,0.48320600000442937,None,,,,,,,,,0,44,44,44,928.5768712999998,,,,,,,,,,,,,928.5616367000039,928.5768712999998,928.5768712999998,928.5768712999998,933.8567012999993,,,,933.8744694000052,933.8851812000066,933.8851812000066,933.9216928999958,933.9220156000083,933.9380466000002,933.9380466000002,933.9380466000002,934.0213232999959,934.4223660999996,,,,,,,,,,,,,,,,,,,,,,up,5.2677579000010155,None,space,0.48320600000442937,None,P150,001,2025-04-11_11h15.14.301,posner_endo_new1,2024.2.4,60.105003439383694,2025-04-11 11h15.21.142725 +0100,
cube_l.png,0.1,0.31,invalid,45,45,0,up,4.630668099998729,None,space,0.3429267999890726,None,,,,,,,,,0,45,45,45,934.4375177000038,,,,,,,,,,,,,934.4226533000037,934.4375177000038,934.4375177000038,934.4375177000038,939.0848283000087,,,,939.1027551000006,939.1135925999988,939.1135925999988,939.1495445000037,939.1500800000067,939.1659695999988,939.1659695999988,939.1659695999988,939.2492056000046,939.5180105000036,,,,,,,,,,,,,,,,,,,,,,up,4.630668099998729,None,space,0.3429267999890726,None,P150,001,2025-04-11_11h15.14.301,posner_endo_new1,2024.2.4,60.105003439383694,2025-04-11 11h15.21.142725 +0100,
cube_r.png,0.1,0.31,valid,46,46,0,up,5.928971700006514,None,space,0.33454470000287984,None,,,,,,,,,0,46,46,46,939.5321721000073,,,,,,,,,,,,,939.5184876999992,939.5321721000073,939.5321721000073,939.5321721000073,945.4780351000081,,,,945.4958694000088,945.506695700009,945.506695700009,945.5429603000084,945.5434927000024,945.5593436000054,945.5593436000054,945.5593436000054,945.6426880000072,945.9108922000014,,,,,,,,,,,,,,,,,,,,,,up,5.928971700006514,None,space,0.33454470000287984,None,P150,001,2025-04-11_11h15.14.301,posner_endo_new1,2024.2.4,60.105003439383694,2025-04-11 11h15.21.142725 +0100,
cube_l.png,0.1,-0.31,valid,47,47,0,up,5.375441999989562,None,space,0.29330509999999776,None,,,,,,,,,0,47,47,47,945.9256464000064,,,,,,,,,,,,,945.9113683000032,945.9256464000064,945.9256464000064,945.9256464000064,951.3042742999969,,,,951.3100534999976,951.3216359000071,951.3216359000071,951.3702527999994,951.3704803,951.3866998000012,951.3866998000012,951.3866998000012,951.4701108000008,951.6873402000056,,,,,,,,,,,,,,,,,,,,,,up,5.375441999989562,None,space,0.29330509999999776,None,P150,001,2025-04-11_11h15.14.301,posner_endo_new1,2024.2.4,60.105003439383694,2025-04-11 11h15.21.142725 +0100,
cube_r.png,0.1,-0.31,invalid,48,48,0,up,4.86101979999512,None,space,0.26366570001118816,None,,,,,,,,,0,48,48,48,951.703230500003,,,,,,,,,,,,,951.6875228999997,951.703230500003,951.703230500003,951.703230500003,956.566634200004,,,,956.5828328000061,956.5942161999992,956.5942161999992,956.6316896000062,956.6320034000091,956.648279800007,956.648279800007,956.648279800007,956.7314588000008,956.9156878000067,,,,,,,,,,,,,,,,,,,,,,up,4.86101979999512,None,space,0.26366570001118816,None,P150,001,2025-04-11_11h15.14.301,posner_endo_new1,2024.2.4,60.105003439383694,2025-04-11 11h15.21.142725 +0100,
cube_r.png,0.1,10,catch,49,49,0,up,4.6100227999995695,None,space,0.2818840999971144,None,,,,,,,,,0,49,49,49,956.931302500001,,,,,,,,,,,,,956.9159602,956.931302500001,956.931302500001,956.931302500001,961.5448988999997,,,,961.5610793000087,961.5724655999948,961.5724655999948,961.6098314999981,961.6101157999947,961.6264482999977,961.6264482999977,961.6264482999977,961.7097022000089,961.9104690999957,,,,,,,,,,,,,,,,,,,,,,up,4.6100227999995695,None,space,0.2818840999971144,None,P150,001,2025-04-11_11h15.14.301,posner_endo_new1,2024.2.4,60.105003439383694,2025-04-11 11h15.21.142725 +0100,
cube_l.png,0.1,-0.31,valid,50,50,0,up,4.53488260001177,None,space,0.3838199000019813,None,,,,,,,,,0,50,50,50,961.9260225000035,,,,,,,,,,,,,961.9107012000022,961.9260225000035,961.9260225000035,961.9260225000035,966.4719916000031,,,,966.4777732000075,966.4892476999958,966.4892476999958,966.5380488000083,966.538543600007,966.5544010000012,966.5544010000012,966.5544010000012,966.6210415999958,966.9556021000026,,,,,,,,,,,,,,,,,,,,,,up,4.53488260001177,None,space,0.3838199000019813,None,P150,001,2025-04-11_11h15.14.301,posner_endo_new1,2024.2.4,60.105003439383694,2025-04-11 11h15.21.142725 +0100,
cube_l.png,0.1,-0.31,valid,51,51,0,up,4.961815200003912,None,space,0.40763329999754205,None,,,,,,,,,0,51,51,51,966.970696000004,,,,,,,,,,,,,966.9560499000072,966.970696000004,966.970696000004,966.970696000004,971.9342701999994,,,,971.9505820000049,971.961673400001,971.961673400001,971.9991139000049,971.9996068000037,972.0155368999986,972.0155368999986,972.0155368999986,972.098768900003,972.4337359000056,,,,,,,,,,,,,,,,,,,,,,up,4.961815200003912,None,space,0.40763329999754205,None,P150,001,2025-04-11_11h15.14.301,posner_endo_new1,2024.2.4,60.105003439383694,2025-04-11 11h15.21.142725 +0100,
cube_r.png,0.1,-0.31,invalid,52,52,0,up,4.611871100001736,None,space,0.2264703999971971,None,,,,,,,,,0,52,52,52,972.4484117999964,,,,,,,,,,,,,972.4341835000087,972.4484117999964,972.4484117999964,972.4484117999964,977.0618982000015,,,,977.0729639000056,977.0833044000028,977.0833044000028,977.1273694999982,977.1277098999999,977.1438376000006,977.1438376000006,977.1438376000006,977.2271016000013,977.3781958000036,,,,,,,,,,,,,,,,,,,,,,up,4.611871100001736,None,space,0.2264703999971971,None,P150,001,2025-04-11_11h15.14.301,posner_endo_new1,2024.2.4,60.105003439383694,2025-04-11 11h15.21.142725 +0100,
cube_l.png,0.1,-0.31,valid,53,53,0,up,3.930552500009071,None,space,0.4346144000010099,None,,,,,,,,,0,53,53,53,977.3936348999996,,,,,,,,,,,,,977.3784873999975,977.3936348999996,977.3936348999996,977.3936348999996,981.3404618000059,,,,981.3475539000065,981.3593022999994,981.3593022999994,981.4061749999964,981.4066864000051,981.4225491999969,981.4225491999969,981.4225491999969,981.5058149999968,981.8735782000003,,,,,,,,,,,,,,,,,,,,,,up,3.930552500009071,None,space,0.4346144000010099,None,P150,001,2025-04-11_11h15.14.301,posner_endo_new1,2024.2.4,60.105003439383694,2025-04-11 11h15.21.142725 +0100,
cube_r.png,0.1,10,catch,54,54,0,up,5.323506799992174,None,None,,,,,,,,,,,0,54,54,54,981.8890474000073,,,,,,,,,,,,,981.873863700006,981.8890474000073,981.8890474000073,981.8890474000073,987.2180593999947,,,,987.2291706999968,987.2394503999967,987.2394503999967,987.2836296000023,987.283969600001,987.300235200004,987.300235200004,987.300235200004,987.3832305999968,990.2978523000056,,,,989.397914000001,990.3137547000078,990.3137547000078,990.3137547000078,,,,,,,,,,,,,,,up,5.323506799992174,None,None,,,P150,001,2025-04-11_11h15.14.301,posner_endo_new1,2024.2.4,60.105003439383694,2025-04-11 11h15.21.142725 +0100,
cube_l.png,0.1,0.31,invalid,55,55,0,up,2.0191150000027847,None,space,0.3014083000016399,None,,,,,,,,,0,55,55,55,990.3137547000078,,,,,,,,,,,,,990.2981238000066,990.3137547000078,990.3137547000078,990.3137547000078,992.3462537000014,,,,992.3573483000073,992.367765700008,992.367765700008,992.4116431000002,992.411984499995,992.4281713999953,992.4281713999953,992.4281713999953,992.5114084000088,992.7456329999986,,,,,,,,,,,,,,,,,,,,,,up,2.0191150000027847,None,space,0.3014083000016399,None,P150,001,2025-04-11_11h15.14.301,posner_endo_new1,2024.2.4,60.105003439383694,2025-04-11 11h15.21.142725 +0100,
cube_l.png,0.1,-0.31,valid,56,56,0,up,4.507207800008473,None,space,0.30658930000208784,None,,,,,,,,,0,56,56,56,992.7612460000091,,,,,,,,,,,,,992.7459230999957,992.7612460000091,992.7612460000091,992.7612460000091,997.274631399996,,,,997.2858385,997.2960582000087,997.2960582000087,997.3399454000028,997.3402843000076,997.3566289000009,997.3566289000009,997.3566289000009,997.4397725000017,997.6738796999998,,,,,,,,,,,,,,,,,,,,,,up,4.507207800008473,None,space,0.30658930000208784,None,P150,001,2025-04-11_11h15.14.301,posner_endo_new1,2024.2.4,60.105003439383694,2025-04-11 11h15.21.142725 +0100,
cube_r.png,0.1,0.31,valid,57,57,0,up,4.986774599994533,None,space,0.3047584000014467,None,,,,,,,,,0,57,57,57,997.6895802000072,,,,,,,,,,,,,997.674171599996,997.6895802000072,997.6895802000072,997.6895802000072,1002.6851396999991,,,,1002.6922008999973,1002.7035767000052,1002.7035767000052,1002.7509867000044,1002.7514821000077,1002.7673979999963,1002.7673979999963,1002.7673979999963,1002.8506320000015,1003.0851684000081,,,,,,,,,,,,,,,,,,,,,,up,4.986774599994533,None,space,0.3047584000014467,None,P150,001,2025-04-11_11h15.14.301,posner_endo_new1,2024.2.4,60.105003439383694,2025-04-11 11h15.21.142725 +0100,
cube_r.png,0.1,-0.31,invalid,58,58,0,up,4.480079299988574,None,space,0.21825960000569467,None,,,,,,,,,0,58,58,58,1003.1005997000029,,,,,,,,,,,,,1003.0854541000008,1003.1005997000029,1003.1005997000029,1003.1005997000029,1007.597190600005,,,,1007.6082446000073,1007.6182186000078,1007.6182186000078,1007.6627788000042,1007.6631215999951,1007.6791771999997,1007.6791771999997,1007.6791771999997,1007.762561800002,1007.9135110000061,,,,,,,,,,,,,,,,,,,,,,up,4.480079299988574,None,space,0.21825960000569467,None,P150,001,2025-04-11_11h15.14.301,posner_endo_new1,2024.2.4,60.105003439383694,2025-04-11 11h15.21.142725 +0100,
cube_l.png,0.1,0.31,invalid,59,59,0,up,4.507121200003894,None,space,0.23061990000132937,None,,,,,,,,,0,59,59,59,1007.9290255999949,,,,,,,,,,,,,1007.9137999000086,1007.9290255999949,1007.9290255999949,1007.9290255999949,1012.4422501000081,,,,1012.4506475000089,1012.4606365000072,1012.4606365000072,1012.5076894000085,1012.5079390000028,1012.524279300007,1012.524279300007,1012.524279300007,1012.6075379999966,1012.7584154000069,,,,,,,,,,,,,,,,,,,,,,up,4.507121200003894,None,space,0.23061990000132937,None,P150,001,2025-04-11_11h15.14.301,posner_endo_new1,2024.2.4,60.105003439383694,2025-04-11 11h15.21.142725 +0100,
