cue_img,cue_soa,target_x,trial,thisN,thisTrialN,thisRepN,key_control2.keys,key_control2.rt,key_control2.duration,key_resp.keys,key_resp.rt,key_resp.duration,practice.thisRepN,practice.thisTrialN,practice.thisN,practice.thisIndex,block1.thisRepN,block1.thisTrialN,block1.thisN,block1.thisIndex,block2.thisRepN,block2.thisTrialN,block2.thisN,block2.thisIndex,thisRow.t,notes,instructions.started,instructions_txt.started,key_control.started,instructions.stopped,key_control.keys,key_control.rt,key_control.duration,ready.started,ready_txt.started,ready_txt.stopped,ready.stopped,fix.started,fixation.started,key_control2.started,fixation_cross.started,fix.stopped,practice.key_control2.keys,practice.key_control2.rt,practice.key_control2.duration,cue.started,cube.started,fixation_cross_cue.started,cue.stopped,target.started,fixation_target.started,fixation_cross_target.started,key_resp.started,star.started,target.stopped,practice.key_resp.keys,practice.key_resp.rt,practice.key_resp.duration,star.stopped,fixation_target.stopped,fixation_cross_target.stopped,key_resp.stopped,block1.key_control2.keys,block1.key_control2.rt,block1.key_control2.duration,block1.key_resp.keys,block1.key_resp.rt,block1.key_resp.duration,break_2.started,text.started,key_control3.started,text.stopped,break_2.stopped,key_control3.keys,key_control3.rt,key_control3.duration,block2.key_control2.keys,block2.key_control2.rt,block2.key_control2.duration,block2.key_resp.keys,block2.key_resp.rt,block2.key_resp.duration,participant,session,date,expName,psychopyVersion,frameRate,expStart,
,,,,,,,,,,,,,,,,,,,,,,,,,,,0.00742280000122264,0.019560200002160855,0.019560200002160855,1.3203875999897718,up,1.282063599996036,None,,,,,,,,,,,,,,,,,,,,,,,,,,,,,,,,,,,,,,,,,,,,,,,,,,P151,001,2025-04-11_12h17.15.805,posner_endo_new1,2024.2.4,60.02483828028734,2025-04-11 12h17.22.045867 +0100,
,,,,,,,,,,,,,,,,,,,,,,,,,,,,,,,,,,1.3204534999968018,1.3342054999957327,4.332102899992606,4.312617799994769,,,,,,,,,,,,,,,,,,,,,,,,,,,,,,,,,,,,,,,,,,,,,,P151,001,2025-04-11_12h17.15.805,posner_endo_new1,2024.2.4,60.02483828028734,2025-04-11 12h17.22.045867 +0100,
cube_l.png,0.1,0.31,invalid,0,0,0,up,46.40946789999725,None,space,0.4821613999956753,None,0,0,0,5,,,,,,,,,4.332102899992606,,,,,,,,,,,,,4.319652199992561,4.332102899992606,4.332102899992606,4.332102899992606,50.75100150000071,up,46.40946789999725,None,50.781965799993486,50.794508699997095,50.794508699997095,50.81450779999432,50.814938299998175,50.83102339999459,50.83102339999459,50.83102339999459,50.91410359999281,51.315165899999556,space,0.4821613999956753,None,,,,,,,,,,,,,,,,,,,,,,,,,P151,001,2025-04-11_12h17.15.805,posner_endo_new1,2024.2.4,60.02483828028734,2025-04-11 12h17.22.045867 +0100,
cube_r.png,0.1,10,catch,1,1,0,up,2.5791591000015615,None,None,,,0,1,1,3,,,,,,,,,51.330648499992094,,,,,,,,,,,,,51.31541450000077,51.330648499992094,51.330648499992094,51.330648499992094,53.912579700001515,up,2.5791591000015615,None,53.92319889999635,53.933065699995495,53.933065699995495,53.97802789999696,53.97835389999091,53.99456239999563,53.99456239999563,53.99456239999563,54.077780099993106,56.992227800001274,None,,,56.092409499993664,57.008080400002655,57.008080400002655,57.008080400002655,,,,,,,,,,,,,,,,,,,,,P151,001,2025-04-11_12h17.15.805,posner_endo_new1,2024.2.4,60.02483828028734,2025-04-11 12h17.22.045867 +0100,
cube_r.png,0.1,-0.31,invalid,2,2,0,up,3.549316299991915,None,space,0.33858730000793,None,0,2,2,2,,,,,,,,,57.008080400002655,,,,,,,,,,,,,56.992459999994026,57.008080400002655,57.008080400002655,57.008080400002655,60.572358599994914,up,3.549316299991915,None,60.583139800000936,60.59330999999656,60.59330999999656,60.63799279999512,60.638326000000234,60.65443789999699,60.65443789999699,60.65443789999699,60.737684899999294,61.00511159999587,space,0.33858730000793,None,,,,,,,,,,,,,,,,,,,,,,,,,P151,001,2025-04-11_12h17.15.805,posner_endo_new1,2024.2.4,60.02483828028734,2025-04-11 12h17.22.045867 +0100,
cube_l.png,0.1,-0.31,valid,3,3,0,up,2.4092889000021387,None,space,0.31764900000416674,None,0,3,3,0,,,,,,,,,61.02075959999638,,,,,,,,,,,,,61.00535310000123,61.02075959999638,61.02075959999638,61.02075959999638,63.43601730000228,up,2.4092889000021387,None,63.44568109999818,63.45587879999948,63.45587879999948,63.50167959999817,63.50201090000337,63.51822849999007,63.51822849999007,63.51822849999007,63.60148080000363,63.852360499993665,space,0.31764900000416674,None,,,,,,,,,,,,,,,,,,,,,,,,,P151,001,2025-04-11_12h17.15.805,posner_endo_new1,2024.2.4,60.02483828028734,2025-04-11 12h17.22.045867 +0100,
cube_r.png,0.1,-0.31,invalid,4,4,0,up,2.2744128000049386,None,space,0.30296610000368673,None,0,4,4,6,,,,,,,,,63.86778269999195,,,,,,,,,,,,,63.852599899997585,63.86778269999195,63.86778269999195,63.86778269999195,66.150012099999,up,2.2744128000049386,None,66.15955389999726,66.16960769999423,66.16960769999423,66.21553629999107,66.21585959999356,66.23208919999888,66.23208919999888,66.23208919999888,66.31534669999382,66.54943240000284,space,0.30296610000368673,None,,,,,,,,,,,,,,,,,,,,,,,,,P151,001,2025-04-11_12h17.15.805,posner_endo_new1,2024.2.4,60.02483828028734,2025-04-11 12h17.22.045867 +0100,
cube_r.png,0.1,0.31,valid,5,5,0,up,2.39239130000351,None,space,0.3025284999894211,None,0,5,5,7,,,,,,,,,66.56505059999472,,,,,,,,,,,,,66.54968309999094,66.56505059999472,66.56505059999472,66.56505059999472,68.96374110000033,up,2.39239130000351,None,68.97311429999536,68.98320129999775,68.98320129999775,69.02935349999461,69.02967509999871,69.04591040000378,69.04591040000378,69.04591040000378,69.12909950000176,69.36330709999311,space,0.3025284999894211,None,,,,,,,,,,,,,,,,,,,,,,,,,P151,001,2025-04-11_12h17.15.805,posner_endo_new1,2024.2.4,60.02483828028734,2025-04-11 12h17.22.045867 +0100,
cube_r.png,0.1,-0.31,invalid,6,6,0,up,2.5146758999908343,None,space,0.2856322000006912,None,0,6,6,9,,,,,,,,,69.37892399998964,,,,,,,,,,,,,69.36354730000312,69.37892399998964,69.37892399998964,69.37892399998964,71.91057439999713,up,2.5146758999908343,None,71.92006409999158,71.92984729999444,71.92984729999444,71.97632539999904,71.97665339999367,71.99275779999152,71.99275779999152,71.99275779999152,72.07636559999082,72.29350179999892,space,0.2856322000006912,None,,,,,,,,,,,,,,,,,,,,,,,,,P151,001,2025-04-11_12h17.15.805,posner_endo_new1,2024.2.4,60.02483828028734,2025-04-11 12h17.22.045867 +0100,
cube_l.png,0.1,-0.31,valid,7,7,0,up,2.520715399994515,None,space,0.3045824000000721,None,0,7,7,4,,,,,,,,,72.30910149999545,,,,,,,,,,,,,72.29374290000123,72.30910149999545,72.30910149999545,72.30910149999545,74.84094599999662,up,2.520715399994515,None,74.85052520000318,74.86062549999042,74.86062549999042,74.90667539999413,74.90700479999941,74.92314980000083,74.92314980000083,74.92314980000083,75.00645760000043,75.24066519999178,space,0.3045824000000721,None,,,,,,,,,,,,,,,,,,,,,,,,,P151,001,2025-04-11_12h17.15.805,posner_endo_new1,2024.2.4,60.02483828028734,2025-04-11 12h17.22.045867 +0100,
cube_r.png,0.1,0.31,valid,8,8,0,up,2.9422614999930374,None,space,0.2862537000037264,None,0,8,8,10,,,,,,,,,75.25621609999507,,,,,,,,,,,,,75.24092369999562,75.25621609999507,75.25621609999507,75.25621609999507,78.2043127999932,up,2.9422614999930374,None,78.2139240999968,78.22395739999774,78.22395739999774,78.26987199998985,78.27019749999454,78.28639789999579,78.28639789999579,78.28639789999579,78.36965389999386,78.58724009999423,space,0.2862537000037264,None,,,,,,,,,,,,,,,,,,,,,,,,,P151,001,2025-04-11_12h17.15.805,posner_endo_new1,2024.2.4,60.02483828028734,2025-04-11 12h17.22.045867 +0100,
cube_l.png,0.1,-0.31,valid,9,9,0,up,6.755005400002119,None,space,0.3066114000102971,None,0,9,9,8,,,,,,,,,78.60264470000402,,,,,,,,,,,,,78.58748869999545,78.60264470000402,78.60264470000402,78.60264470000402,85.36351019999711,up,6.755005400002119,None,85.37335519999033,85.38350879999052,85.38350879999052,85.42916430000332,85.42949049999879,85.44580229998974,85.44580229998974,85.44580229998974,85.52893790000235,85.76322139998956,space,0.3066114000102971,None,,,,,,,,,,,,,,,,,,,,,,,,,P151,001,2025-04-11_12h17.15.805,posner_endo_new1,2024.2.4,60.02483828028734,2025-04-11 12h17.22.045867 +0100,
cube_l.png,0.1,0.31,invalid,10,10,0,up,3.6670782000001054,None,space,0.3161816999927396,None,0,10,10,1,,,,,,,,,85.77870999999868,,,,,,,,,,,,,85.76347520000127,85.77870999999868,85.77870999999868,85.77870999999868,89.4594012000016,up,3.6670782000001054,None,89.46892590000061,89.47906050000165,89.47906050000165,89.52498809999088,89.52531329999329,89.54147129999183,89.54147129999183,89.54147129999183,89.62480320000031,89.85905709999497,space,0.3161816999927396,None,,,,,,,,,,,,,,,,,,,,,,,,,P151,001,2025-04-11_12h17.15.805,posner_endo_new1,2024.2.4,60.02483828028734,2025-04-11 12h17.22.045867 +0100,
,,,,,,,,,,,,,,,,,,,,,,,,,,,,,,,,,,89.85921719999169,89.87452440000197,92.88326400000369,92.85550530000182,,,,,,,,,,,,,,,,,,,,,,,,,,,,,,,,,,,,,,,,,,,,,,P151,001,2025-04-11_12h17.15.805,posner_endo_new1,2024.2.4,60.02483828028734,2025-04-11 12h17.22.045867 +0100,
cube_l.png,0.1,10,catch,0,0,0,up,9.210167500001262,None,None,,,,,,,0,0,0,0,,,,,92.88326400000369,,,,,,,,,,,,,92.8743536999973,92.88326400000369,92.88326400000369,92.88326400000369,102.09636019999743,,,,102.10454210000171,102.1148428000015,102.1148428000015,102.16223909999826,102.1624826999905,102.17859409999801,102.17859409999801,102.17859409999801,102.26206939999247,105.17619420000119,,,,104.27647169999545,105.19216079999751,105.19216079999751,105.19216079999751,up,9.210167500001262,None,None,,,,,,,,,,,,,,,,,P151,001,2025-04-11_12h17.15.805,posner_endo_new1,2024.2.4,60.02483828028734,2025-04-11 12h17.22.045867 +0100,
cube_l.png,0.1,10,catch,1,1,0,up,0.6378545999905327,None,None,,,,,,,0,1,1,1,,,,,105.19216079999751,,,,,,,,,,,,,105.17636379999749,105.19216079999751,105.19216079999751,105.19216079999751,105.84220259998983,,,,105.84859729999152,105.86019069999747,105.86019069999747,105.90826280000329,105.90850599999249,105.9248219000001,105.9248219000001,105.9248219000001,105.99153689999366,108.92226159998972,,,,108.00599750000401,108.93838479999977,108.93838479999977,108.93838479999977,up,0.6378545999905327,None,None,,,,,,,,,,,,,,,,,P151,001,2025-04-11_12h17.15.805,posner_endo_new1,2024.2.4,60.02483828028734,2025-04-11 12h17.22.045867 +0100,
cube_l.png,0.1,0.31,invalid,2,2,0,up,0.30771520000416785,None,space,0.35668499999155756,None,,,,,0,2,2,2,,,,,108.93838479999977,,,,,,,,,,,,,108.92243249999592,108.93838479999977,108.93838479999977,108.93838479999977,109.25531870000123,,,,109.26166599999124,109.27300220000325,109.27300220000325,109.3215474000026,109.32179069999256,109.3380671999912,109.3380671999912,109.3380671999912,109.42111699999077,109.70503109999117,,,,,,,,up,0.30771520000416785,None,space,0.35668499999155756,None,,,,,,,,,,,,,,,P151,001,2025-04-11_12h17.15.805,posner_endo_new1,2024.2.4,60.02483828028734,2025-04-11 12h17.22.045867 +0100,
cube_l.png,0.1,0.31,invalid,3,3,0,up,2.7249349000048824,None,space,0.34024949999002274,None,,,,,0,3,3,3,,,,,109.72095940000145,,,,,,,,,,,,,109.70522190000338,109.72095940000145,109.72095940000145,109.72095940000145,112.45244510000339,,,,112.45842290000292,112.4700465999922,112.4700465999922,112.51829159999033,112.51853719999781,112.53468779999821,112.53468779999821,112.53468779999821,112.61792520000017,112.88505179999629,,,,,,,,up,2.7249349000048824,None,space,0.34024949999002274,None,,,,,,,,,,,,,,,P151,001,2025-04-11_12h17.15.805,posner_endo_new1,2024.2.4,60.02483828028734,2025-04-11 12h17.22.045867 +0100,
cube_l.png,0.1,-0.31,valid,4,4,0,up,2.5050538000068627,None,space,0.3234978999971645,None,,,,,0,4,4,4,,,,,112.90107799999532,,,,,,,,,,,,,112.88523449999047,112.90107799999532,112.90107799999532,112.90107799999532,115.41599199999473,,,,115.42210789999808,115.43359069999133,115.43359069999133,115.48191970000335,115.48218039999483,115.49826269999903,115.49826269999903,115.49826269999903,115.58151969999017,115.8319610000035,,,,,,,,up,2.5050538000068627,None,space,0.3234978999971645,None,,,,,,,,,,,,,,,P151,001,2025-04-11_12h17.15.805,posner_endo_new1,2024.2.4,60.02483828028734,2025-04-11 12h17.22.045867 +0100,
cube_r.png,0.1,-0.31,invalid,5,5,0,up,2.6695203999988735,None,space,0.2326208000013139,None,,,,,0,5,5,5,,,,,115.84805580000102,,,,,,,,,,,,,115.83214139999473,115.84805580000102,115.84805580000102,115.84805580000102,118.52896909999254,,,,118.53513449999446,118.54677689999517,118.54677689999517,118.59533260000171,118.59557679999853,118.61180939999758,118.61180939999758,118.61180939999758,118.67850449999969,118.84542469998996,,,,,,,,up,2.6695203999988735,None,space,0.2326208000013139,None,,,,,,,,,,,,,,,P151,001,2025-04-11_12h17.15.805,posner_endo_new1,2024.2.4,60.02483828028734,2025-04-11 12h17.22.045867 +0100,
cube_r.png,0.1,0.31,valid,6,6,0,up,2.5359501000057207,None,space,0.29986769999959506,None,,,,,0,6,6,6,,,,,118.86172309999529,,,,,,,,,,,,,118.84560410000267,118.86172309999529,118.86172309999529,118.86172309999529,121.4097308999917,,,,121.4157847000024,121.42759629999637,121.42759629999637,121.47530629999528,121.47556489999988,121.49223429999256,121.49223429999256,121.49223429999256,121.55894709999848,121.79296310000063,,,,,,,,up,2.5359501000057207,None,space,0.29986769999959506,None,,,,,,,,,,,,,,,P151,001,2025-04-11_12h17.15.805,posner_endo_new1,2024.2.4,60.02483828028734,2025-04-11 12h17.22.045867 +0100,
cube_r.png,0.1,-0.31,invalid,7,7,0,up,2.4685951999999816,None,space,0.24457219999749213,None,,,,,0,7,7,7,,,,,121.80870349999168,,,,,,,,,,,,,121.7931469000032,121.80870349999168,121.80870349999168,121.80870349999168,124.28998659999343,,,,124.29597599999397,124.30762359999062,124.30762359999062,124.35612470000342,124.35637419999694,124.37307699999656,124.37307699999656,124.37307699999656,124.43897380000271,124.62270849999913,,,,,,,,up,2.4685951999999816,None,space,0.24457219999749213,None,,,,,,,,,,,,,,,P151,001,2025-04-11_12h17.15.805,posner_endo_new1,2024.2.4,60.02483828028734,2025-04-11 12h17.22.045867 +0100,
cube_l.png,0.1,-0.31,valid,8,8,0,up,2.486782099993434,None,space,0.18648129999928642,None,,,,,0,8,8,8,,,,,124.63878719999047,,,,,,,,,,,,,124.62289279999095,124.63878719999047,124.63878719999047,124.63878719999047,127.13719039999705,,,,127.14322220000031,127.15475269999297,127.15475269999297,127.20316829999501,127.20341239999107,127.21965990000172,127.21965990000172,127.21965990000172,127.30290640000021,127.42026549999719,,,,,,,,up,2.486782099993434,None,space,0.18648129999928642,None,,,,,,,,,,,,,,,P151,001,2025-04-11_12h17.15.805,posner_endo_new1,2024.2.4,60.02483828028734,2025-04-11 12h17.22.045867 +0100,
cube_r.png,0.1,-0.31,invalid,9,9,0,up,2.4009495999926003,None,space,0.19039420000626706,None,,,,,0,9,9,9,,,,,127.43628809999791,,,,,,,,,,,,,127.42045039999357,127.43628809999791,127.43628809999791,127.43628809999791,129.8508482999896,,,,129.85686339999666,129.86842849999084,129.86842849999084,129.91696370000136,129.91720480000367,129.93351819999225,129.93351819999225,129.93351819999225,130.00018360000104,130.1340143999987,,,,,,,,up,2.4009495999926003,None,space,0.19039420000626706,None,,,,,,,,,,,,,,,P151,001,2025-04-11_12h17.15.805,posner_endo_new1,2024.2.4,60.02483828028734,2025-04-11 12h17.22.045867 +0100,
cube_l.png,0.1,0.31,invalid,10,10,0,up,2.648181199998362,None,space,0.22297319999779575,None,,,,,0,10,10,10,,,,,130.14999959999113,,,,,,,,,,,,,130.1341989999928,130.14999959999113,130.14999959999113,130.14999959999113,132.8148264999909,,,,132.82081679999828,132.83202669999446,132.83202669999446,132.88078849999874,132.8810311999987,132.89705040000263,132.89705040000263,132.89705040000263,132.98041639999428,133.1310366999969,,,,,,,,up,2.648181199998362,None,space,0.22297319999779575,None,,,,,,,,,,,,,,,P151,001,2025-04-11_12h17.15.805,posner_endo_new1,2024.2.4,60.02483828028734,2025-04-11 12h17.22.045867 +0100,
cube_r.png,0.1,-0.31,invalid,11,11,0,up,3.2507897000032244,None,space,0.2492259999999078,None,,,,,0,11,11,11,,,,,133.1469275999989,,,,,,,,,,,,,133.13121839999803,133.1469275999989,133.1469275999989,133.1469275999989,136.41112639999483,,,,136.41718370000308,136.4287811999966,136.4287811999966,136.47675699999672,136.47700319999421,136.49345739999262,136.49345739999262,136.49345739999262,136.57674809999298,136.74425269999483,,,,,,,,up,3.2507897000032244,None,space,0.2492259999999078,None,,,,,,,,,,,,,,,P151,001,2025-04-11_12h17.15.805,posner_endo_new1,2024.2.4,60.02483828028734,2025-04-11 12h17.22.045867 +0100,
cube_r.png,0.1,0.31,valid,12,12,0,up,2.6377514000050724,None,space,0.2272994000086328,None,,,,,0,12,12,12,,,,,136.76000339999155,,,,,,,,,,,,,136.7444356999913,136.76000339999155,136.76000339999155,136.76000339999155,139.4079528000002,,,,139.41423709999071,139.4258853999927,139.4258853999927,139.47347029999946,139.47371360000398,139.49057169999287,139.49057169999287,139.49057169999287,139.55715169999166,139.7243443999905,,,,,,,,up,2.6377514000050724,None,space,0.2272994000086328,None,,,,,,,,,,,,,,,P151,001,2025-04-11_12h17.15.805,posner_endo_new1,2024.2.4,60.02483828028734,2025-04-11 12h17.22.045867 +0100,
cube_l.png,0.1,10,catch,13,13,0,up,2.745513999994728,None,space,0.2159066000021994,None,,,,,0,13,13,13,,,,,139.74017429999367,,,,,,,,,,,,,139.72453099999984,139.74017429999367,139.74017429999367,139.74017429999367,142.4881372999953,,,,142.49421239999356,142.50577609999164,142.50577609999164,142.5539793999924,142.55422369998996,142.57020580000244,142.57020580000244,142.57020580000244,142.63717560000077,142.78795230000105,,,,,,,,up,2.745513999994728,None,space,0.2159066000021994,None,,,,,,,,,,,,,,,P151,001,2025-04-11_12h17.15.805,posner_endo_new1,2024.2.4,60.02483828028734,2025-04-11 12h17.22.045867 +0100,
cube_r.png,0.1,-0.31,invalid,14,14,0,up,2.545761900008074,None,space,0.30140640000172425,None,,,,,0,14,14,14,,,,,142.80369669999345,,,,,,,,,,,,,142.78813659999287,142.80369669999345,142.80369669999345,142.80369669999345,145.35196420000284,,,,145.3579899000033,145.36983429999964,145.36983429999964,145.41786970000248,145.4181196999998,145.43425809999462,145.43425809999462,145.43425809999462,145.51758909999626,145.751428699994,,,,,,,,up,2.545761900008074,None,space,0.30140640000172425,None,,,,,,,,,,,,,,,P151,001,2025-04-11_12h17.15.805,posner_endo_new1,2024.2.4,60.02483828028734,2025-04-11 12h17.22.045867 +0100,
cube_l.png,0.1,-0.31,valid,15,15,0,up,2.4145062000025064,None,space,0.3349259000096936,None,,,,,0,15,15,15,,,,,145.7672334999952,,,,,,,,,,,,,145.7516070999991,145.7672334999952,145.7672334999952,145.7672334999952,148.18255399999907,,,,148.188559599992,148.1999877999915,148.1999877999915,148.24826049999683,148.24850600000354,148.264691999997,148.264691999997,148.264691999997,148.3479396999901,148.61528719999478,,,,,,,,up,2.4145062000025064,None,space,0.3349259000096936,None,,,,,,,,,,,,,,,P151,001,2025-04-11_12h17.15.805,posner_endo_new1,2024.2.4,60.02483828028734,2025-04-11 12h17.22.045867 +0100,
cube_r.png,0.1,10,catch,16,16,0,up,2.8470206999918446,None,space,0.24004530000092927,None,,,,,0,16,16,16,,,,,148.63108439999633,,,,,,,,,,,,,148.61547509999946,148.63108439999633,148.63108439999633,148.63108439999633,151.4788583999907,,,,151.48486640000192,151.49652499999502,151.49652499999502,151.5444595000008,151.54470089999086,151.5614082999964,151.5614082999964,151.5614082999964,151.62800369999604,151.81204419999267,,,,,,,,up,2.8470206999918446,None,space,0.24004530000092927,None,,,,,,,,,,,,,,,P151,001,2025-04-11_12h17.15.805,posner_endo_new1,2024.2.4,60.02483828028734,2025-04-11 12h17.22.045867 +0100,
cube_r.png,0.1,10,catch,17,17,0,up,2.6342746000009356,None,None,,,,,,,0,17,17,17,,,,,151.82783039999777,,,,,,,,,,,,,151.8122236999916,151.82783039999777,151.82783039999777,151.82783039999777,154.4779251,,,,154.50023469999724,154.5125682999933,154.5125682999933,154.54167930000403,154.5421226999897,154.55800029999227,154.55800029999227,154.55800029999227,154.64120349999575,157.5557945999899,,,,156.655820999993,157.57154599999194,157.57154599999194,157.57154599999194,up,2.6342746000009356,None,None,,,,,,,,,,,,,,,,,P151,001,2025-04-11_12h17.15.805,posner_endo_new1,2024.2.4,60.02483828028734,2025-04-11 12h17.22.045867 +0100,
cube_l.png,0.1,0.31,invalid,18,18,0,up,3.4581420999893453,None,space,0.42388459999347106,None,,,,,0,18,18,18,,,,,157.57154599999194,,,,,,,,,,,,,157.5561075000005,157.57154599999194,157.57154599999194,157.57154599999194,161.0361264999956,,,,161.04387589999533,161.05461910000304,161.05461910000304,161.101817200004,161.1020955999993,161.11841110000387,161.11841110000387,161.11841110000387,161.2015837999934,161.55218450000393,,,,,,,,up,3.4581420999893453,None,space,0.42388459999347106,None,,,,,,,,,,,,,,,P151,001,2025-04-11_12h17.15.805,posner_endo_new1,2024.2.4,60.02483828028734,2025-04-11 12h17.22.045867 +0100,
cube_l.png,0.1,10,catch,19,19,0,up,2.2372993000026327,None,None,,,,,,,0,19,19,19,,,,,161.5679947000026,,,,,,,,,,,,,161.55240559999947,161.5679947000026,161.5679947000026,161.5679947000026,163.81647079999675,,,,163.82424449999235,163.8351338999928,163.8351338999928,163.88241789999302,163.88270600000396,163.89859189999697,163.89859189999697,163.89859189999697,163.98216699999466,166.89632939999865,,,,165.99670770000375,166.9124587999977,166.9124587999977,166.9124587999977,up,2.2372993000026327,None,None,,,,,,,,,,,,,,,,,P151,001,2025-04-11_12h17.15.805,posner_endo_new1,2024.2.4,60.02483828028734,2025-04-11 12h17.22.045867 +0100,
cube_l.png,0.1,0.31,invalid,20,20,0,up,0.3652901000023121,None,space,0.3303583999950206,None,,,,,0,20,20,20,,,,,166.9124587999977,,,,,,,,,,,,,166.8965356999979,166.9124587999977,166.9124587999977,166.9124587999977,167.27978489999077,,,,167.28751769999508,167.29821389999415,167.29821389999415,167.34550769999623,167.34579069999745,167.3618950999953,167.3618950999953,167.3618950999953,167.44523409999965,167.69595149999077,,,,,,,,up,0.3652901000023121,None,space,0.3303583999950206,None,,,,,,,,,,,,,,,P151,001,2025-04-11_12h17.15.805,posner_endo_new1,2024.2.4,60.02483828028734,2025-04-11 12h17.22.045867 +0100,
cube_l.png,0.1,-0.31,valid,21,21,0,up,2.63807290000841,None,space,0.3227716999972472,None,,,,,0,21,21,21,,,,,167.711567499995,,,,,,,,,,,,,167.69617870000366,167.711567499995,167.711567499995,167.711567499995,170.35983020000276,,,,170.36757409998972,170.3784869999945,170.3784869999945,170.4256522999931,170.42593539999507,170.44209599999886,170.44209599999886,170.44209599999886,170.52537669999583,170.77621359999466,,,,,,,,up,2.63807290000841,None,space,0.3227716999972472,None,,,,,,,,,,,,,,,P151,001,2025-04-11_12h17.15.805,posner_endo_new1,2024.2.4,60.02483828028734,2025-04-11 12h17.22.045867 +0100,
cube_r.png,0.1,0.31,valid,22,22,0,up,4.189813900011359,None,space,0.26697240000066813,None,,,,,0,22,22,22,,,,,170.79187719999754,,,,,,,,,,,,,170.77643179999723,170.79187719999754,170.79187719999754,170.79187719999754,174.9885678999999,,,,174.99632109999948,175.00695569999516,175.00695569999516,175.05414769999334,175.05442760000005,175.0706727999932,175.0706727999932,175.0706727999932,175.1539669999911,175.35448189999443,,,,,,,,up,4.189813900011359,None,space,0.26697240000066813,None,,,,,,,,,,,,,,,P151,001,2025-04-11_12h17.15.805,posner_endo_new1,2024.2.4,60.02483828028734,2025-04-11 12h17.22.045867 +0100,
cube_r.png,0.1,-0.31,invalid,23,23,0,up,3.0268794000003254,None,space,0.2736923999909777,None,,,,,0,23,23,23,,,,,175.3706979999988,,,,,,,,,,,,,175.3547067000036,175.3706979999988,175.3706979999988,175.3706979999988,178.40158150000207,,,,178.40936360000342,178.42015019999235,178.42015019999235,178.46758060000138,178.46786239999346,178.48404480000318,178.48404480000318,178.48404480000318,178.56715309999709,178.7679255999974,,,,,,,,up,3.0268794000003254,None,space,0.2736923999909777,None,,,,,,,,,,,,,,,P151,001,2025-04-11_12h17.15.805,posner_endo_new1,2024.2.4,60.02483828028734,2025-04-11 12h17.22.045867 +0100,
cube_r.png,0.1,0.31,valid,24,24,0,up,2.6464876999962144,None,space,0.21819569999934174,None,,,,,0,24,24,24,,,,,178.7835589000024,,,,,,,,,,,,,178.76814030000241,178.7835589000024,178.7835589000024,178.7835589000024,181.43189969999366,,,,181.43962849999662,181.45039279999037,181.45039279999037,181.49760099999548,181.49788239999907,181.5141094999999,181.5141094999999,181.5141094999999,181.59753079999064,181.74803649999376,,,,,,,,up,2.6464876999962144,None,space,0.21819569999934174,None,,,,,,,,,,,,,,,P151,001,2025-04-11_12h17.15.805,posner_endo_new1,2024.2.4,60.02483828028734,2025-04-11 12h17.22.045867 +0100,
cube_r.png,0.1,-0.31,invalid,25,25,0,up,2.44999110000208,None,space,0.27177340000343975,None,,,,,0,25,25,25,,,,,181.76390769999125,,,,,,,,,,,,,181.7482611000014,181.76390769999125,181.76390769999125,181.76390769999125,184.22911469999235,,,,184.23680869999225,184.24749700000393,184.24749700000393,184.29487450000306,184.29516500000318,184.31131389999064,184.31131389999064,184.31131389999064,184.3941358000011,184.59528599999612,,,,,,,,up,2.44999110000208,None,space,0.27177340000343975,None,,,,,,,,,,,,,,,P151,001,2025-04-11_12h17.15.805,posner_endo_new1,2024.2.4,60.02483828028734,2025-04-11 12h17.22.045867 +0100,
cube_l.png,0.1,-0.31,valid,26,26,0,up,2.7864454000082333,None,space,0.26819430000614375,None,,,,,0,26,26,26,,,,,184.61094479999156,,,,,,,,,,,,,184.59550769999623,184.61094479999156,184.61094479999156,184.61094479999156,187.40897869999753,,,,187.41672649999964,187.42772769999283,187.42772769999283,187.47490400000243,187.47518500000297,187.49138259999745,187.49138259999745,187.49138259999745,187.5748556999897,187.77542429999448,,,,,,,,up,2.7864454000082333,None,space,0.26819430000614375,None,,,,,,,,,,,,,,,P151,001,2025-04-11_12h17.15.805,posner_endo_new1,2024.2.4,60.02483828028734,2025-04-11 12h17.22.045867 +0100,
cube_r.png,0.1,0.31,valid,27,27,0,up,3.5343895999976667,None,space,0.23790600000938866,None,,,,,0,27,27,27,,,,,187.79096389999904,,,,,,,,,,,,,187.77564639999764,187.79096389999904,187.79096389999904,187.79096389999904,191.33828499999072,,,,191.3461052999919,191.35693709999032,191.35693709999032,191.4042427999957,191.40452909999294,191.42067269999825,191.42067269999825,191.42067269999825,191.5039198000013,191.671399999992,,,,,,,,up,3.5343895999976667,None,space,0.23790600000938866,None,,,,,,,,,,,,,,,P151,001,2025-04-11_12h17.15.805,posner_endo_new1,2024.2.4,60.02483828028734,2025-04-11 12h17.22.045867 +0100,
cube_r.png,0.1,10,catch,28,28,0,up,5.079626399994595,None,space,0.32315749999543186,None,,,,,0,28,28,28,,,,,191.6871691999986,,,,,,,,,,,,,191.67161669999768,191.6871691999986,191.6871691999986,191.6871691999986,196.7828509999963,,,,196.79067789998953,196.8013318000012,196.8013318000012,196.84871679999924,196.84900400000333,196.86486849999346,196.86486849999346,196.86486849999346,196.94829559999926,197.1992007999943,,,,,,,,up,5.079626399994595,None,space,0.32315749999543186,None,,,,,,,,,,,,,,,P151,001,2025-04-11_12h17.15.805,posner_endo_new1,2024.2.4,60.02483828028734,2025-04-11 12h17.22.045867 +0100,
cube_r.png,0.1,0.31,valid,29,29,0,up,3.7351543999975547,None,space,0.3940550999977859,None,,,,,0,29,29,29,,,,,197.2147755999904,,,,,,,,,,,,,197.1994188999961,197.2147755999904,197.2147755999904,197.2147755999904,200.96169290000398,,,,200.96955909999087,200.9803966000036,200.9803966000036,201.027545799996,201.02782570000272,201.0442153999902,201.0442153999902,201.0442153999902,201.12753169999633,201.44468629999028,,,,,,,,up,3.7351543999975547,None,space,0.3940550999977859,None,,,,,,,,,,,,,,,P151,001,2025-04-11_12h17.15.805,posner_endo_new1,2024.2.4,60.02483828028734,2025-04-11 12h17.22.045867 +0100,
cube_r.png,0.1,0.31,valid,30,30,0,up,3.7530292000010377,None,space,0.3414770999952452,None,,,,,0,30,30,30,,,,,201.460428099992,,,,,,,,,,,,,201.44490390000283,201.460428099992,201.460428099992,201.460428099992,205.22416869999142,,,,205.23193199999514,205.24288309999974,205.24288309999974,205.2899466999952,205.29022759999498,205.30649619999167,205.30649619999167,205.30649619999167,205.38955140000326,205.65698369999882,,,,,,,,up,3.7530292000010377,None,space,0.3414770999952452,None,,,,,,,,,,,,,,,P151,001,2025-04-11_12h17.15.805,posner_endo_new1,2024.2.4,60.02483828028734,2025-04-11 12h17.22.045867 +0100,
cube_l.png,0.1,-0.31,valid,31,31,0,up,2.372903799987398,None,space,0.32609190000221133,None,,,,,0,31,31,31,,,,,205.67278639999859,,,,,,,,,,,,,205.6572096000018,205.67278639999859,205.67278639999859,205.67278639999859,208.05446489999304,,,,208.06227460000082,208.07310670000152,208.07310670000152,208.1204093999986,208.12070289999247,208.13686589999998,208.13686589999998,208.13686589999998,208.20359940000344,208.47085620000144,,,,,,,,up,2.372903799987398,None,space,0.32609190000221133,None,,,,,,,,,,,,,,,P151,001,2025-04-11_12h17.15.805,posner_endo_new1,2024.2.4,60.02483828028734,2025-04-11 12h17.22.045867 +0100,
cube_r.png,0.1,0.31,valid,32,32,0,up,2.5511149000085425,None,space,0.22786509999423288,None,,,,,0,32,32,32,,,,,208.48663079999096,,,,,,,,,,,,,208.47108099999605,208.48663079999096,208.48663079999096,208.48663079999096,211.051538899992,,,,211.05922359999386,211.07004189999134,211.07004189999134,211.1172654999973,211.1175474999909,211.13388579999446,211.13388579999446,211.13388579999446,211.21712000000116,211.36789749999298,,,,,,,,up,2.5511149000085425,None,space,0.22786509999423288,None,,,,,,,,,,,,,,,P151,001,2025-04-11_12h17.15.805,posner_endo_new1,2024.2.4,60.02483828028734,2025-04-11 12h17.22.045867 +0100,
cube_r.png,0.1,-0.31,invalid,33,33,0,up,2.630464000001666,None,space,0.2985506999975769,None,,,,,0,33,33,33,,,,,211.3835606999928,,,,,,,,,,,,,211.36811429999943,211.3835606999928,211.3835606999928,211.3835606999928,214.01530079999065,,,,214.02308669999184,214.03370980000182,214.03370980000182,214.0809472999972,214.08122710000316,214.09756129999005,214.09756129999005,214.09756129999005,214.18079569999827,214.39815320000343,,,,,,,,up,2.630464000001666,None,space,0.2985506999975769,None,,,,,,,,,,,,,,,P151,001,2025-04-11_12h17.15.805,posner_endo_new1,2024.2.4,60.02483828028734,2025-04-11 12h17.22.045867 +0100,
cube_r.png,0.1,10,catch,34,34,0,up,2.58356630000344,None,None,,,,,,,0,34,34,34,,,,,214.41386679999414,,,,,,,,,,,,,214.39837260000058,214.41386679999414,214.41386679999414,214.41386679999414,217.01210639999772,,,,217.0198626999918,217.0306469999923,217.0306469999923,217.07787139998982,217.07815239999036,217.0943988999934,217.0943988999934,217.0943988999934,217.17768290000095,220.09188569999242,,,,219.1922496999905,220.1079721999995,220.1079721999995,220.1079721999995,up,2.58356630000344,None,None,,,,,,,,,,,,,,,,,P151,001,2025-04-11_12h17.15.805,posner_endo_new1,2024.2.4,60.02483828028734,2025-04-11 12h17.22.045867 +0100,
cube_r.png,0.1,0.31,valid,35,35,0,up,0.3699367000081111,None,space,0.35343429999193177,None,,,,,0,35,35,35,,,,,220.1079721999995,,,,,,,,,,,,,220.09209019999253,220.1079721999995,220.1079721999995,220.1079721999995,220.4917478999996,,,,220.49941170000238,220.51045750000048,220.51045750000048,220.55774469999596,220.55802860000404,220.57420019998972,220.57420019998972,220.57420019998972,220.6574976999982,220.9415267000004,,,,,,,,up,0.3699367000081111,None,space,0.35343429999193177,None,,,,,,,,,,,,,,,P151,001,2025-04-11_12h17.15.805,posner_endo_new1,2024.2.4,60.02483828028734,2025-04-11 12h17.22.045867 +0100,
cube_r.png,0.1,-0.31,invalid,36,36,0,up,2.368325500006904,None,space,0.35217859999102075,None,,,,,0,36,36,36,,,,,220.9572366999928,,,,,,,,,,,,,220.94174759999441,220.9572366999928,220.9572366999928,220.9572366999928,223.33888870000374,,,,223.34659380000085,223.35759909999615,223.35759909999615,223.40487489999214,223.40516249999928,223.4212461999996,223.4212461999996,223.4212461999996,223.5045686999947,223.788515799999,,,,,,,,up,2.368325500006904,None,space,0.35217859999102075,None,,,,,,,,,,,,,,,P151,001,2025-04-11_12h17.15.805,posner_endo_new1,2024.2.4,60.02483828028734,2025-04-11 12h17.22.045867 +0100,
cube_l.png,0.1,0.31,invalid,37,37,0,up,2.4418596000032267,None,space,0.33643330000631977,None,,,,,0,37,37,37,,,,,223.804212499992,,,,,,,,,,,,,223.78874370000267,223.804212499992,223.804212499992,223.804212499992,226.25279939999746,,,,226.26050639999448,226.2710539999971,226.2710539999971,226.3184057999897,226.31868759999634,226.33501779999642,226.33501779999642,226.33501779999642,226.41818480000074,226.6855543999991,,,,,,,,up,2.4418596000032267,None,space,0.33643330000631977,None,,,,,,,,,,,,,,,P151,001,2025-04-11_12h17.15.805,posner_endo_new1,2024.2.4,60.02483828028734,2025-04-11 12h17.22.045867 +0100,
cube_l.png,0.1,0.31,invalid,38,38,0,up,2.632423299990478,None,space,0.23808270000154153,None,,,,,0,38,38,38,,,,,226.70118760000332,,,,,,,,,,,,,226.6857708000025,226.70118760000332,226.70118760000332,226.70118760000332,229.34941339999205,,,,229.35707209999964,229.3682845000003,229.3682845000003,229.41515299999446,229.41543419999653,229.43187800000305,229.43187800000305,229.43187800000305,229.5150161999918,229.6825680000038,,,,,,,,up,2.632423299990478,None,space,0.23808270000154153,None,,,,,,,,,,,,,,,P151,001,2025-04-11_12h17.15.805,posner_endo_new1,2024.2.4,60.02483828028734,2025-04-11 12h17.22.045867 +0100,
cube_r.png,0.1,0.31,valid,39,39,0,up,2.61119329999201,None,space,0.29336690000491217,None,,,,,0,39,39,39,,,,,229.69819070000085,,,,,,,,,,,,,229.6827864999941,229.69819070000085,229.69819070000085,229.69819070000085,232.3132384999917,,,,232.32106390000263,232.33165179999196,232.33165179999196,232.37900109999464,232.37927849999687,232.39543609999237,232.39543609999237,232.39543609999237,232.47864619999018,232.69599690000177,,,,,,,,up,2.61119329999201,None,space,0.29336690000491217,None,,,,,,,,,,,,,,,P151,001,2025-04-11_12h17.15.805,posner_endo_new1,2024.2.4,60.02483828028734,2025-04-11 12h17.22.045867 +0100,
cube_l.png,0.1,0.31,invalid,40,40,0,up,2.5584450000023935,None,space,0.26046010000573006,None,,,,,0,40,40,40,,,,,232.71170659999189,,,,,,,,,,,,,232.69621419999748,232.71170659999189,232.71170659999189,232.71170659999189,235.27666259999387,,,,235.28432579999208,235.29540029999043,235.29540029999043,235.34251719999884,235.34280189999845,235.35899719998997,235.35899719998997,235.35899719998997,235.42568879999453,235.62638159999915,,,,,,,,up,2.5584450000023935,None,space,0.26046010000573006,None,,,,,,,,,,,,,,,P151,001,2025-04-11_12h17.15.805,posner_endo_new1,2024.2.4,60.02483828028734,2025-04-11 12h17.22.045867 +0100,
cube_l.png,0.1,10,catch,41,41,0,up,2.6911660000041593,None,None,,,,,,,0,41,41,41,,,,,235.6421643999929,,,,,,,,,,,,,235.6266018000024,235.6421643999929,235.6421643999929,235.6421643999929,238.340246199994,,,,238.34793360000185,238.35882149999088,238.35882149999088,238.4060632999899,238.40634459999274,238.4227058999968,238.4227058999968,238.4227058999968,238.5058493999968,241.42017899999337,,,,240.52032779999718,241.43620919999375,241.43620919999375,241.43620919999375,up,2.6911660000041593,None,None,,,,,,,,,,,,,,,,,P151,001,2025-04-11_12h17.15.805,posner_endo_new1,2024.2.4,60.02483828028734,2025-04-11 12h17.22.045867 +0100,
cube_l.png,0.1,-0.31,valid,42,42,0,up,3.6978736000019126,None,space,0.2839813999889884,None,,,,,0,42,42,42,,,,,241.43620919999375,,,,,,,,,,,,,241.42038460000185,241.43620919999375,241.43620919999375,241.43620919999375,245.15065909999248,,,,245.16720080000232,245.17818409999018,245.17818409999018,245.2158683000016,245.21618699999817,245.2323819000012,245.2323819000012,245.2323819000012,245.31561489999876,245.5330627999938,,,,,,,,up,3.6978736000019126,None,space,0.2839813999889884,None,,,,,,,,,,,,,,,P151,001,2025-04-11_12h17.15.805,posner_endo_new1,2024.2.4,60.02483828028734,2025-04-11 12h17.22.045867 +0100,
cube_l.png,0.1,10,catch,43,43,0,up,2.54461949999677,None,None,,,,,,,0,43,43,43,,,,,245.54863209999166,,,,,,,,,,,,,245.53330070000084,245.54863209999166,245.54863209999166,245.54863209999166,248.09688800000004,,,,248.10287719999906,248.11444419999316,248.11444419999316,248.16278069998953,248.16302589999395,248.1792209999985,248.1792209999985,248.1792209999985,248.26237969999784,251.17622799999663,,,,250.27711290000298,251.19235209999897,251.19235209999897,251.19235209999897,up,2.54461949999677,None,None,,,,,,,,,,,,,,,,,P151,001,2025-04-11_12h17.15.805,posner_endo_new1,2024.2.4,60.02483828028734,2025-04-11 12h17.22.045867 +0100,
cube_l.png,0.1,0.31,invalid,44,44,0,up,0.8211728000023868,None,space,0.35549669999454636,None,,,,,0,44,44,44,,,,,251.19235209999897,,,,,,,,,,,,,251.1763981999975,251.19235209999897,251.19235209999897,251.19235209999897,252.02616779999516,,,,252.0321857999952,252.0437743999937,252.0437743999937,252.0919872999948,252.09222930000396,252.1085921999911,252.1085921999911,252.1085921999911,252.19183670000348,252.47552569999243,,,,,,,,up,0.8211728000023868,None,space,0.35549669999454636,None,,,,,,,,,,,,,,,P151,001,2025-04-11_12h17.15.805,posner_endo_new1,2024.2.4,60.02483828028734,2025-04-11 12h17.22.045867 +0100,
cube_l.png,0.1,0.31,invalid,45,45,0,up,2.641827800005558,None,space,0.3541267000109656,None,,,,,0,45,45,45,,,,,252.49138959999254,,,,,,,,,,,,,252.4757024999999,252.49138959999254,252.49138959999254,252.49138959999254,255.13958339999954,,,,255.14554739999585,255.15716409999004,255.15716409999004,255.20546640000248,255.2057124999992,255.22174589999486,255.22174589999486,255.22174589999486,255.30519749999803,255.58887769999274,,,,,,,,up,2.641827800005558,None,space,0.3541267000109656,None,,,,,,,,,,,,,,,P151,001,2025-04-11_12h17.15.805,posner_endo_new1,2024.2.4,60.02483828028734,2025-04-11 12h17.22.045867 +0100,
cube_r.png,0.1,0.31,valid,46,46,0,up,2.9211137000093004,None,space,0.30188949999865144,None,,,,,0,46,46,46,,,,,255.60492949999752,,,,,,,,,,,,,255.58905889999005,255.60492949999752,255.60492949999752,255.60492949999752,258.5359843999904,,,,258.5419619000022,258.55341469999985,258.55341469999985,258.6021122999955,258.60235109999485,258.6185155999992,258.6185155999992,258.6185155999992,258.6851222999976,258.93570940000063,,,,,,,,up,2.9211137000093004,None,space,0.30188949999865144,None,,,,,,,,,,,,,,,P151,001,2025-04-11_12h17.15.805,posner_endo_new1,2024.2.4,60.02483828028734,2025-04-11 12h17.22.045867 +0100,
cube_l.png,0.1,-0.31,valid,47,47,0,up,2.237839299996267,None,space,0.3316331999958493,None,,,,,0,47,47,47,,,,,258.95154749999347,,,,,,,,,,,,,258.93588809999346,258.95154749999347,258.95154749999347,258.95154749999347,261.2000684999948,,,,261.2060236999969,261.2175203999941,261.2175203999941,261.2659014999954,261.26614659999905,261.28248120000353,261.28248120000353,261.28248120000353,261.3653680999996,261.61634569999296,,,,,,,,up,2.237839299996267,None,space,0.3316331999958493,None,,,,,,,,,,,,,,,P151,001,2025-04-11_12h17.15.805,posner_endo_new1,2024.2.4,60.02483828028734,2025-04-11 12h17.22.045867 +0100,
cube_r.png,0.1,-0.31,invalid,48,48,0,up,2.5415754999994533,None,space,0.29252980000455864,None,,,,,0,48,48,48,,,,,261.6317329000012,,,,,,,,,,,,,261.6165231999912,261.6317329000012,261.6317329000012,261.6317329000012,264.1802200999955,,,,264.1862190999964,264.197892199998,264.197892199998,264.24613669999235,264.2463801999984,264.2626098000037,264.2626098000037,264.2626098000037,264.3293440999987,264.56324190000305,,,,,,,,up,2.5415754999994533,None,space,0.29252980000455864,None,,,,,,,,,,,,,,,P151,001,2025-04-11_12h17.15.805,posner_endo_new1,2024.2.4,60.02483828028734,2025-04-11 12h17.22.045867 +0100,
cube_r.png,0.1,10,catch,49,49,0,up,2.57843550000689,None,None,,,,,,,0,49,49,49,,,,,264.57912589999614,,,,,,,,,,,,,264.56341370000155,264.57912589999614,264.57912589999614,264.57912589999614,267.16057959999307,,,,267.16663019999396,267.1782131999935,267.1782131999935,267.2265519999928,267.2267967999942,267.24310089999926,267.24310089999926,267.24310089999926,267.30955130000075,270.2406539999938,,,,269.3242573000025,270.25666829998954,270.25666829998954,270.25666829998954,up,2.57843550000689,None,None,,,,,,,,,,,,,,,,,P151,001,2025-04-11_12h17.15.805,posner_endo_new1,2024.2.4,60.02483828028734,2025-04-11 12h17.22.045867 +0100,
cube_l.png,0.1,-0.31,valid,50,50,0,up,2.9569397999875946,None,space,0.259798300001421,None,,,,,0,50,50,50,,,,,270.25666829998954,,,,,,,,,,,,,270.2408207999979,270.25666829998954,270.25666829998954,270.25666829998954,273.2211451000039,,,,273.2271877000021,273.238680399998,273.238680399998,273.2870330000005,273.2872766999935,273.3033168999973,273.3033168999973,273.3033168999973,273.38638840000203,273.57070979999844,,,,,,,,up,2.9569397999875946,None,space,0.259798300001421,None,,,,,,,,,,,,,,,P151,001,2025-04-11_12h17.15.805,posner_endo_new1,2024.2.4,60.02483828028734,2025-04-11 12h17.22.045867 +0100,
cube_l.png,0.1,-0.31,valid,51,51,0,up,2.706702299998142,None,space,0.31592529999034014,None,,,,,0,51,51,51,,,,,273.5864462000027,,,,,,,,,,,,,273.57089079999423,273.5864462000027,273.5864462000027,273.5864462000027,276.3012843999895,,,,276.3072719999909,276.3187980999937,276.3187980999937,276.36722269999154,276.3674641999969,276.38369679999596,276.38369679999596,276.38369679999596,276.45031200000085,276.7007753999933,,,,,,,,up,2.706702299998142,None,space,0.31592529999034014,None,,,,,,,,,,,,,,,P151,001,2025-04-11_12h17.15.805,posner_endo_new1,2024.2.4,60.02483828028734,2025-04-11 12h17.22.045867 +0100,
cube_r.png,0.1,-0.31,invalid,52,52,0,up,2.8736457000049995,None,space,0.2926378999982262,None,,,,,0,52,52,52,,,,,276.71639999999024,,,,,,,,,,,,,276.7009554999968,276.71639999999024,276.71639999999024,276.71639999999024,279.59824839999783,,,,279.6077072999906,279.61782230000244,279.61782230000244,279.66386429998965,279.6641912999912,279.6803702999896,279.6803702999896,279.6803702999896,279.7635875999986,279.9811636999948,,,,,,,,up,2.8736457000049995,None,space,0.2926378999982262,None,,,,,,,,,,,,,,,P151,001,2025-04-11_12h17.15.805,posner_endo_new1,2024.2.4,60.02483828028734,2025-04-11 12h17.22.045867 +0100,
cube_l.png,0.1,-0.31,valid,53,53,0,up,2.8646195999899646,None,space,0.2986613000102807,None,,,,,0,53,53,53,,,,,279.99657560000196,,,,,,,,,,,,,279.98142290000396,279.99657560000196,279.99657560000196,279.99657560000196,282.8782559999963,,,,282.8860525999917,282.89662279999175,282.89662279999175,282.943969999993,282.94422150000173,282.96016590000363,282.96016590000363,282.96016590000363,283.0431924000004,283.2608976999909,,,,,,,,up,2.8646195999899646,None,space,0.2986613000102807,None,,,,,,,,,,,,,,,P151,001,2025-04-11_12h17.15.805,posner_endo_new1,2024.2.4,60.02483828028734,2025-04-11 12h17.22.045867 +0100,
cube_r.png,0.1,10,catch,54,54,0,up,2.888383800003794,None,None,,,,,,,0,54,54,54,,,,,283.27673749999667,,,,,,,,,,,,,283.26109089999227,283.27673749999667,283.27673749999667,283.27673749999667,286.17434359999606,,,,286.1809864999959,286.19253509999544,286.19253509999544,286.2402868999925,286.24061169999186,286.25684909999836,286.25684909999836,286.25684909999836,286.3234373000014,289.2544662,,,,288.33806059999915,289.27052989999356,289.27052989999356,289.27052989999356,up,2.888383800003794,None,None,,,,,,,,,,,,,,,,,P151,001,2025-04-11_12h17.15.805,posner_endo_new1,2024.2.4,60.02483828028734,2025-04-11 12h17.22.045867 +0100,
cube_l.png,0.1,0.31,invalid,55,55,0,up,3.1346824999927776,None,space,0.25934099999722093,None,,,,,0,55,55,55,,,,,289.27052989999356,,,,,,,,,,,,,289.254709300003,289.27052989999356,289.27052989999356,289.27052989999356,292.41827919999196,,,,292.4277346000017,292.4379152000038,292.4379152000038,292.4841133000009,292.48444179999933,292.5005489000032,292.5005489000032,292.5005489000032,292.58373250000295,292.7679812999995,,,,,,,,up,3.1346824999927776,None,space,0.25934099999722093,None,,,,,,,,,,,,,,,P151,001,2025-04-11_12h17.15.805,posner_endo_new1,2024.2.4,60.02483828028734,2025-04-11 12h17.22.045867 +0100,
cube_l.png,0.1,-0.31,valid,56,56,0,up,3.094343499993556,None,space,0.2220999999990454,None,,,,,0,56,56,56,,,,,292.7835793999984,,,,,,,,,,,,,292.76825120000285,292.7835793999984,292.7835793999984,292.7835793999984,295.88154309999663,,,,295.89093189999403,295.90107290000014,295.90107290000014,295.94707909999124,295.94740370000363,295.9635930999939,295.9635930999939,295.9635930999939,296.0469468999945,296.1978156999976,,,,,,,,up,3.094343499993556,None,space,0.2220999999990454,None,,,,,,,,,,,,,,,P151,001,2025-04-11_12h17.15.805,posner_endo_new1,2024.2.4,60.02483828028734,2025-04-11 12h17.22.045867 +0100,
cube_r.png,0.1,0.31,valid,57,57,0,up,2.976608299999498,None,space,0.37136520000058226,None,,,,,0,57,57,57,,,,,296.2134167999902,,,,,,,,,,,,,296.19807339999534,296.2134167999902,296.2134167999902,296.2134167999902,299.19507180000073,,,,299.20385619999433,299.2134328999964,299.2134328999964,299.260480500001,299.2607272000023,299.27708639999037,299.27708639999037,299.27708639999037,299.36019629999646,299.66071509999165,,,,,,,,up,2.976608299999498,None,space,0.37136520000058226,None,,,,,,,,,,,,,,,P151,001,2025-04-11_12h17.15.805,posner_endo_new1,2024.2.4,60.02483828028734,2025-04-11 12h17.22.045867 +0100,
cube_r.png,0.1,-0.31,invalid,58,58,0,up,2.681575700000394,None,space,0.4053792000049725,None,,,,,0,58,58,58,,,,,299.67634279999766,,,,,,,,,,,,,299.6608949999936,299.67634279999766,299.67634279999766,299.67634279999766,302.360411200003,,,,302.3824409999943,302.3929624000011,302.3929624000011,302.42363679999835,302.4241042999929,302.44008859999303,302.44008859999303,302.44008859999303,302.5233365000022,302.85768559999997,,,,,,,,up,2.681575700000394,None,space,0.4053792000049725,None,,,,,,,,,,,,,,,P151,001,2025-04-11_12h17.15.805,posner_endo_new1,2024.2.4,60.02483828028734,2025-04-11 12h17.22.045867 +0100,
cube_l.png,0.1,0.31,invalid,59,59,0,up,2.2205695000011474,None,space,0.36335659999167547,None,,,,,0,59,59,59,,,,,302.8733903999964,,,,,,,,,,,,,302.8579330999928,302.8733903999964,302.8733903999964,302.8733903999964,305.1053569999931,,,,305.113943999997,305.12391959999513,305.12391959999513,305.1710267000017,305.1713588999992,305.1875663999963,305.1875663999963,305.1875663999963,305.2708016999968,305.55514479998965,,,,,,,,up,2.2205695000011474,None,space,0.36335659999167547,None,,,,,,,,,,,,,,,P151,001,2025-04-11_12h17.15.805,posner_endo_new1,2024.2.4,60.02483828028734,2025-04-11 12h17.22.045867 +0100,
,,,,,,,,,,,,,,,,,,,,,,,,,,,,,,,,,,,,,,,,,,,,,,,,,,,,,,,,,,,,,,,,,,,,,305.55531039999914,305.57053189999715,305.57053189999715,365.57594450000033,368.3090488000016,space,62.72357479999482,None,,,,,,,P151,001,2025-04-11_12h17.15.805,posner_endo_new1,2024.2.4,60.02483828028734,2025-04-11 12h17.22.045867 +0100,
,,,,,,,,,,,,,,,,,,,,,,,,,,,,,,,,,,368.30923719999555,368.3231115999952,371.4139974999998,371.3048179000034,,,,,,,,,,,,,,,,,,,,,,,,,,,,,,,,,,,,,,,,,,,,,,P151,001,2025-04-11_12h17.15.805,posner_endo_new1,2024.2.4,60.02483828028734,2025-04-11 12h17.22.045867 +0100,
cube_l.png,0.1,10,catch,0,0,0,down,8.304148700000951,None,None,,,,,,,,,,,0,0,0,0,371.4139974999998,,,,,,,,,,,,,371.4056249999994,371.4139974999998,371.4139974999998,371.4139974999998,379.72878219999257,,,,379.7348459999921,379.74637690000236,379.74637690000236,379.7946052999905,379.7948546999978,379.8112451999914,379.8112451999914,379.8112451999914,379.8944283000019,382.80895910000254,,,,381.90904169999703,382.8247200999904,382.8247200999904,382.8247200999904,,,,,,,,,,,,,,,down,8.304148700000951,None,None,,,P151,001,2025-04-11_12h17.15.805,posner_endo_new1,2024.2.4,60.02483828028734,2025-04-11 12h17.22.045867 +0100,
cube_l.png,0.1,10,catch,1,1,0,down,3.493106900001294,None,None,,,,,,,,,,,0,1,1,1,382.8247200999904,,,,,,,,,,,,,382.80912839999655,382.8247200999904,382.8247200999904,382.8247200999904,386.3221770999953,,,,386.32819179999933,386.3397103000025,386.3397103000025,386.3880269999936,386.38827239999955,386.404097199993,386.404097199993,386.404097199993,386.48772609999287,389.4018039999937,,,,388.50184729999455,389.41768749999756,389.41768749999756,389.41768749999756,,,,,,,,,,,,,,,down,3.493106900001294,None,None,,,P151,001,2025-04-11_12h17.15.805,posner_endo_new1,2024.2.4,60.02483828028734,2025-04-11 12h17.22.045867 +0100,
cube_l.png,0.1,0.31,invalid,2,2,0,down,0.1874270999978762,None,space,0.31548029999248683,None,,,,,,,,,0,2,2,2,389.41768749999756,,,,,,,,,,,,,389.4019754000037,389.41768749999756,389.41768749999756,389.41768749999756,389.6187662000011,,,,389.6247291999898,389.6363461000001,389.6363461000001,389.68458619999,389.6848303000006,389.7010728000023,389.7010728000023,389.7010728000023,389.7843498000002,390.01830149999296,,,,,,,,,,,,,,,,,,,,,,down,0.1874270999978762,None,space,0.31548029999248683,None,P151,001,2025-04-11_12h17.15.805,posner_endo_new1,2024.2.4,60.02483828028734,2025-04-11 12h17.22.045867 +0100,
cube_l.png,0.1,0.31,invalid,3,3,0,down,8.211487699998543,None,space,0.2641061000031186,None,,,,,,,,,0,3,3,3,390.03395479999017,,,,,,,,,,,,,390.01848879999307,390.03395479999017,390.03395479999017,390.03395479999017,398.2596923999954,,,,398.26573149999604,398.27721129999554,398.27721129999554,398.3257941999909,398.32603699999163,398.34225489999517,398.34225489999517,398.34225489999517,398.40886689999024,398.6093383999978,,,,,,,,,,,,,,,,,,,,,,down,8.211487699998543,None,space,0.2641061000031186,None,P151,001,2025-04-11_12h17.15.805,posner_endo_new1,2024.2.4,60.02483828028734,2025-04-11 12h17.22.045867 +0100,
cube_l.png,0.1,-0.31,valid,4,4,0,down,2.9254122999991523,None,space,0.3279601999965962,None,,,,,,,,,0,4,4,4,398.62533979999716,,,,,,,,,,,,,398.60952389999875,398.62533979999716,398.62533979999716,398.62533979999716,401.5564946999948,,,,401.5624439999956,401.57392640000035,401.57392640000035,401.6219704999967,401.6222146999935,401.6389796000003,401.6389796000003,401.6389796000003,401.70549989999563,401.97233589999087,,,,,,,,,,,,,,,,,,,,,,down,2.9254122999991523,None,space,0.3279601999965962,None,P151,001,2025-04-11_12h17.15.805,posner_endo_new1,2024.2.4,60.02483828028734,2025-04-11 12h17.22.045867 +0100,
cube_r.png,0.1,-0.31,invalid,5,5,0,down,4.728857800000696,None,space,0.2691454000014346,None,,,,,,,,,0,5,5,5,401.988420099995,,,,,,,,,,,,,401.9725192999904,401.988420099995,401.988420099995,401.988420099995,406.7344570999994,,,,406.74053709999134,406.7520877999923,406.7520877999923,406.800285099991,406.8005264999956,406.81692009999824,406.81692009999824,406.81692009999824,406.8835037999961,407.10067469999194,,,,,,,,,,,,,,,,,,,,,,down,4.728857800000696,None,space,0.2691454000014346,None,P151,001,2025-04-11_12h17.15.805,posner_endo_new1,2024.2.4,60.02483828028734,2025-04-11 12h17.22.045867 +0100,
cube_r.png,0.1,0.31,valid,6,6,0,down,3.377439800009597,None,space,0.30696590000297874,None,,,,,,,,,0,6,6,6,407.11653240000305,,,,,,,,,,,,,407.100858699996,407.11653240000305,407.11653240000305,407.11653240000305,410.4973309999914,,,,410.50324900000123,410.514897999994,410.514897999994,410.56302249999135,410.56326579999586,410.57950910000363,410.57950910000363,410.57950910000363,410.6459049999976,410.89677839999786,,,,,,,,,,,,,,,,,,,,,,down,3.377439800009597,None,space,0.30696590000297874,None,P151,001,2025-04-11_12h17.15.805,posner_endo_new1,2024.2.4,60.02483828028734,2025-04-11 12h17.22.045867 +0100,
cube_r.png,0.1,-0.31,invalid,7,7,0,down,2.8928537999890978,None,space,0.31624610000289977,None,,,,,,,,,0,7,7,7,410.9126910999912,,,,,,,,,,,,,410.8969622000004,410.9126910999912,410.9126910999912,410.9126910999912,413.81081819999963,,,,413.8167598,413.8283936999942,413.8283936999942,413.87668129999656,413.8769251999911,413.8930607999937,413.8930607999937,413.8930607999937,413.9762613999919,414.2102142999938,,,,,,,,,,,,,,,,,,,,,,down,2.8928537999890978,None,space,0.31624610000289977,None,P151,001,2025-04-11_12h17.15.805,posner_endo_new1,2024.2.4,60.02483828028734,2025-04-11 12h17.22.045867 +0100,
cube_l.png,0.1,-0.31,valid,8,8,0,down,3.067243600002257,None,space,0.2643037999951048,None,,,,,,,,,0,8,8,8,414.22603019999224,,,,,,,,,,,,,414.2103913000028,414.22603019999224,414.22603019999224,414.22603019999224,417.30655369999295,,,,417.31257310000365,417.3242198999942,417.3242198999942,417.37332899999456,417.3735738999967,417.38955480000004,417.38955480000004,417.38955480000004,417.4560247999907,417.6566499000037,,,,,,,,,,,,,,,,,,,,,,down,3.067243600002257,None,space,0.2643037999951048,None,P151,001,2025-04-11_12h17.15.805,posner_endo_new1,2024.2.4,60.02483828028734,2025-04-11 12h17.22.045867 +0100,
cube_r.png,0.1,-0.31,invalid,9,9,0,down,5.094132199999876,None,space,0.27435659999900963,None,,,,,,,,,0,9,9,9,417.6723142999981,,,,,,,,,,,,,417.6568350000016,417.6723142999981,417.6723142999981,417.6723142999981,422.76820799999405,,,,422.77426710000145,422.78568369999994,422.78568369999994,422.83404499999597,422.83428840000124,422.85059600000386,422.85059600000386,422.85059600000386,422.9337111999921,423.13426239999535,,,,,,,,,,,,,,,,,,,,,,down,5.094132199999876,None,space,0.27435659999900963,None,P151,001,2025-04-11_12h17.15.805,posner_endo_new1,2024.2.4,60.02483828028734,2025-04-11 12h17.22.045867 +0100,
cube_l.png,0.1,0.31,invalid,10,10,0,down,3.183538299999782,None,space,0.31907030000002123,None,,,,,,,,,0,10,10,10,423.1498197999899,,,,,,,,,,,,,423.1344437999942,423.1498197999899,423.1498197999899,423.1498197999899,426.3476707999944,,,,426.3537822999933,426.3654339999921,426.3654339999921,426.41367529999116,426.4139179999911,426.43018769999617,426.43018769999617,426.43018769999617,426.5134682999924,426.7640920999984,,,,,,,,,,,,,,,,,,,,,,down,3.183538299999782,None,space,0.31907030000002123,None,P151,001,2025-04-11_12h17.15.805,posner_endo_new1,2024.2.4,60.02483828028734,2025-04-11 12h17.22.045867 +0100,
cube_r.png,0.1,-0.31,invalid,11,11,0,down,2.609802099992521,None,space,0.3088180999911856,None,,,,,,,,,0,11,11,11,426.7795952000015,,,,,,,,,,,,,426.76427509999485,426.7795952000015,426.7795952000015,426.7795952000015,429.39458799999557,,,,429.4005352999957,429.41216500000155,429.41216500000155,429.460434099994,429.4606778000016,429.4770855999959,429.4770855999959,429.4770855999959,429.54365849999886,429.7943796000036,,,,,,,,,,,,,,,,,,,,,,down,2.609802099992521,None,space,0.3088180999911856,None,P151,001,2025-04-11_12h17.15.805,posner_endo_new1,2024.2.4,60.02483828028734,2025-04-11 12h17.22.045867 +0100,
cube_r.png,0.1,0.31,valid,12,12,0,down,3.3396956999931717,None,space,0.362260800000513,None,,,,,,,,,0,12,12,12,429.81004729999404,,,,,,,,,,,,,429.7945627000008,429.81004729999404,429.81004729999404,429.81004729999404,433.1575620999938,,,,433.1635485000006,433.1750799000001,433.1750799000001,433.2233969999943,433.22364260000177,433.2397643000004,433.2397643000004,433.2397643000004,433.3229485999909,433.6066279999941,,,,,,,,,,,,,,,,,,,,,,down,3.3396956999931717,None,space,0.362260800000513,None,P151,001,2025-04-11_12h17.15.805,posner_endo_new1,2024.2.4,60.02483828028734,2025-04-11 12h17.22.045867 +0100,
cube_l.png,0.1,10,catch,13,13,0,down,2.511019800003851,None,None,,,,,,,,,,,0,13,13,13,433.6228395999933,,,,,,,,,,,,,433.60680989999673,433.6228395999933,433.6228395999933,433.6228395999933,436.13740659999894,,,,436.1433507000038,436.1548430999974,436.1548430999974,436.20377039999585,436.2040139000019,436.21977679998963,436.21977679998963,436.21977679998963,436.28675269999076,439.2171764999948,,,,438.30106699999305,439.2337256000028,439.2337256000028,439.2337256000028,,,,,,,,,,,,,,,down,2.511019800003851,None,None,,,P151,001,2025-04-11_12h17.15.805,posner_endo_new1,2024.2.4,60.02483828028734,2025-04-11 12h17.22.045867 +0100,
cube_r.png,0.1,-0.31,invalid,14,14,0,down,0.2518994000129169,None,space,0.32582849999016616,None,,,,,,,,,0,14,14,14,439.2337256000028,,,,,,,,,,,,,439.21735259999696,439.2337256000028,439.2337256000028,439.2337256000028,439.5008261999901,,,,439.50683309999295,439.51829649999854,439.51829649999854,439.5668551999988,439.56709939999564,439.5833949999942,439.5833949999942,439.5833949999942,439.6665311999968,439.9171762999904,,,,,,,,,,,,,,,,,,,,,,down,0.2518994000129169,None,space,0.32582849999016616,None,P151,001,2025-04-11_12h17.15.805,posner_endo_new1,2024.2.4,60.02483828028734,2025-04-11 12h17.22.045867 +0100,
cube_l.png,0.1,-0.31,valid,15,15,0,down,2.6166421999951126,None,space,0.33588509999390226,None,,,,,,,,,0,15,15,15,439.93296559999,,,,,,,,,,,,,439.9173638999928,439.93296559999,439.93296559999,439.93296559999,442.5643369000027,,,,442.57030939999095,442.5819225000014,442.5819225000014,442.63020099999267,442.6304442999972,442.64653779999935,442.64653779999935,442.64653779999935,442.7134578999976,442.99745650000114,,,,,,,,,,,,,,,,,,,,,,down,2.6166421999951126,None,space,0.33588509999390226,None,P151,001,2025-04-11_12h17.15.805,posner_endo_new1,2024.2.4,60.02483828028734,2025-04-11 12h17.22.045867 +0100,
cube_r.png,0.1,10,catch,16,16,0,down,2.8006503000069642,None,None,,,,,,,,,,,0,16,16,16,443.0133119999955,,,,,,,,,,,,,442.99764269999287,443.0133119999955,443.0133119999955,443.0133119999955,445.82769399999233,,,,445.83359529999143,445.8451572999911,445.8451572999911,445.89391780000005,445.8941602999985,445.91021719999844,445.91021719999844,445.91021719999844,445.9768122999958,448.9076226999896,,,,447.99101840000367,448.92335810000077,448.92335810000077,448.92335810000077,,,,,,,,,,,,,,,down,2.8006503000069642,None,None,,,P151,001,2025-04-11_12h17.15.805,posner_endo_new1,2024.2.4,60.02483828028734,2025-04-11 12h17.22.045867 +0100,
cube_r.png,0.1,10,catch,17,17,0,down,0.778554600008647,None,None,,,,,,,,,,,0,17,17,17,448.92335810000077,,,,,,,,,,,,,448.90779830000247,448.92335810000077,448.92335810000077,448.92335810000077,449.70716459999676,,,,449.71317659999477,449.72482969998964,449.72482969998964,449.7731014000019,449.7733434999973,449.7895683999959,449.7895683999959,449.7895683999959,449.8731881999993,452.7866006999975,,,,451.8875523000024,452.8027640999935,452.8027640999935,452.8027640999935,,,,,,,,,,,,,,,down,0.778554600008647,None,None,,,P151,001,2025-04-11_12h17.15.805,posner_endo_new1,2024.2.4,60.02483828028734,2025-04-11 12h17.22.045867 +0100,
cube_l.png,0.1,0.31,invalid,18,18,0,down,0.8030041000019992,None,space,0.3517139999894425,None,,,,,,,,,0,18,18,18,452.8027640999935,,,,,,,,,,,,,452.7867733000021,452.8027640999935,452.8027640999935,452.8027640999935,453.61956459999783,,,,453.625515599997,453.63729559999774,453.63729559999774,453.68573159999505,453.68597609999415,453.70231979999517,453.70231979999517,453.70231979999517,453.7688813999994,454.069273599991,,,,,,,,,,,,,,,,,,,,,,down,0.8030041000019992,None,space,0.3517139999894425,None,P151,001,2025-04-11_12h17.15.805,posner_endo_new1,2024.2.4,60.02483828028734,2025-04-11 12h17.22.045867 +0100,
cube_l.png,0.1,10,catch,19,19,0,down,3.48056889999134,None,None,,,,,,,,,,,0,19,19,19,454.0852304,,,,,,,,,,,,,454.0694555999944,454.0852304,454.0852304,454.0852304,457.58251599999494,,,,457.58862949999457,457.6000432000001,457.6000432000001,457.64826869999524,457.648511899999,457.6651217000035,457.6651217000035,457.6651217000035,457.74826019999455,460.66228540000156,,,,459.7622946999909,460.67807310000353,460.67807310000353,460.67807310000353,,,,,,,,,,,,,,,down,3.48056889999134,None,None,,,P151,001,2025-04-11_12h17.15.805,posner_endo_new1,2024.2.4,60.02483828028734,2025-04-11 12h17.22.045867 +0100,
cube_l.png,0.1,0.31,invalid,20,20,0,down,0.4954561999911675,None,space,0.32615090000035707,None,,,,,,,,,0,20,20,20,460.67807310000353,,,,,,,,,,,,,460.66261400000076,460.67807310000353,460.67807310000353,460.67807310000353,461.17895259999204,,,,461.1913960999955,461.2015326999972,461.2015326999972,461.2447996999981,461.2450899999967,461.2612090999901,461.2612090999901,461.2612090999901,461.3445590999909,461.5951570999896,,,,,,,,,,,,,,,,,,,,,,down,0.4954561999911675,None,space,0.32615090000035707,None,P151,001,2025-04-11_12h17.15.805,posner_endo_new1,2024.2.4,60.02483828028734,2025-04-11 12h17.22.045867 +0100,
cube_l.png,0.1,-0.31,valid,21,21,0,down,2.8830791999935172,None,space,0.4562225999980001,None,,,,,,,,,0,21,21,21,461.6109238999925,,,,,,,,,,,,,461.59538610000163,461.6109238999925,461.6109238999925,461.6109238999925,464.50878950000333,,,,464.51648320000095,464.5273831999948,464.5273831999948,464.5746883999964,464.57497180000064,464.5911508999998,464.5911508999998,464.5911508999998,464.67439469999226,465.05815240000084,,,,,,,,,,,,,,,,,,,,,,down,2.8830791999935172,None,space,0.4562225999980001,None,P151,001,2025-04-11_12h17.15.805,posner_endo_new1,2024.2.4,60.02483828028734,2025-04-11 12h17.22.045867 +0100,
cube_r.png,0.1,0.31,valid,22,22,0,down,3.1796906999952625,None,space,0.368325300005381,None,,,,,,,,,0,22,22,22,465.0739934000012,,,,,,,,,,,,,465.0583680999989,465.0739934000012,465.0739934000012,465.0739934000012,468.25507220000145,,,,468.2627652999945,468.27354949999426,468.27354949999426,468.32068979999167,468.32097149999754,468.3373320999963,468.3373320999963,468.3373320999963,468.42054669999925,468.72131290000107,,,,,,,,,,,,,,,,,,,,,,down,3.1796906999952625,None,space,0.368325300005381,None,P151,001,2025-04-11_12h17.15.805,posner_endo_new1,2024.2.4,60.02483828028734,2025-04-11 12h17.22.045867 +0100,
cube_r.png,0.1,-0.31,invalid,23,23,0,down,3.2524547000066377,None,space,0.3122034999978496,None,,,,,,,,,0,23,23,23,468.73696409999684,,,,,,,,,,,,,468.72153830000025,468.73696409999684,468.73696409999684,468.73696409999684,472.0010215999937,,,,472.00864249998995,472.0197511000006,472.0197511000006,472.0669075999904,472.06718840000394,472.0834419000021,472.0834419000021,472.0834419000021,472.166707700002,472.4008152000024,,,,,,,,,,,,,,,,,,,,,,down,3.2524547000066377,None,space,0.3122034999978496,None,P151,001,2025-04-11_12h17.15.805,posner_endo_new1,2024.2.4,60.02483828028734,2025-04-11 12h17.22.045867 +0100,
cube_r.png,0.1,0.31,valid,24,24,0,down,3.1410109999997076,None,space,0.33719390000624117,None,,,,,,,,,0,24,24,24,472.41650259999733,,,,,,,,,,,,,472.4010430999915,472.41650259999733,472.41650259999733,472.41650259999733,475.56443820000277,,,,475.5721457999898,475.5827876999974,475.5827876999974,475.62988719998975,475.630167299998,475.64643320000323,475.64643320000323,475.64643320000323,475.72977710000123,475.99716420000186,,,,,,,,,,,,,,,,,,,,,,down,3.1410109999997076,None,space,0.33719390000624117,None,P151,001,2025-04-11_12h17.15.805,posner_endo_new1,2024.2.4,60.02483828028734,2025-04-11 12h17.22.045867 +0100,
cube_r.png,0.1,-0.31,invalid,25,25,0,down,2.8010238999995636,None,space,0.3130520999984583,None,,,,,,,,,0,25,25,25,476.01284640000085,,,,,,,,,,,,,475.9973861000035,476.01284640000085,476.01284640000085,476.01284640000085,478.8274384999968,,,,478.8351593999978,478.8461160000006,478.8461160000006,478.89328789999126,478.89356759999646,478.9098027,478.9098027,478.9098027,478.9931069000013,479.22723530000076,,,,,,,,,,,,,,,,,,,,,,down,2.8010238999995636,None,space,0.3130520999984583,None,P151,001,2025-04-11_12h17.15.805,posner_endo_new1,2024.2.4,60.02483828028734,2025-04-11 12h17.22.045867 +0100,
cube_l.png,0.1,-0.31,valid,26,26,0,down,2.475255199999083,None,space,0.2767690000036964,None,,,,,,,,,0,26,26,26,479.24282060000405,,,,,,,,,,,,,479.2274574000039,479.24282060000405,479.24282060000405,479.24282060000405,481.7246196999913,,,,481.7323163999972,481.74308269999165,481.74308269999165,481.7899890999979,481.7902716999961,481.8068518999935,481.8068518999935,481.8068518999935,481.89018000000215,482.09086840000236,,,,,,,,,,,,,,,,,,,,,,down,2.475255199999083,None,space,0.2767690000036964,None,P151,001,2025-04-11_12h17.15.805,posner_endo_new1,2024.2.4,60.02483828028734,2025-04-11 12h17.22.045867 +0100,
cube_r.png,0.1,0.31,valid,27,27,0,down,2.234704700007569,None,space,0.28581889999622945,None,,,,,,,,,0,27,27,27,482.1065394999896,,,,,,,,,,,,,482.0910976000014,482.1065394999896,482.1065394999896,482.1065394999896,484.35506099999475,,,,484.36276350000117,484.3741532999993,484.3741532999993,484.4210170000006,484.4213008999941,484.4374419999949,484.4374419999949,484.4374419999949,484.50416979999864,484.7380310000008,,,,,,,,,,,,,,,,,,,,,,down,2.234704700007569,None,space,0.28581889999622945,None,P151,001,2025-04-11_12h17.15.805,posner_endo_new1,2024.2.4,60.02483828028734,2025-04-11 12h17.22.045867 +0100,
cube_r.png,0.1,10,catch,28,28,0,down,2.724856600005296,None,space,0.2635089999967022,None,,,,,,,,,0,28,28,28,484.7538555999927,,,,,,,,,,,,,484.73824890000105,484.7538555999927,484.7538555999927,484.7538555999927,487.48560030000226,,,,487.49330709999776,487.50403719999304,487.50403719999304,487.55106420000084,487.5513438999915,487.567618999994,487.567618999994,487.567618999994,487.6507905000035,487.8351002999989,,,,,,,,,,,,,,,,,,,,,,down,2.724856600005296,None,space,0.2635089999967022,None,P151,001,2025-04-11_12h17.15.805,posner_endo_new1,2024.2.4,60.02483828028734,2025-04-11 12h17.22.045867 +0100,
cube_r.png,0.1,0.31,valid,29,29,0,down,2.962962300007348,None,space,0.3440802999975858,None,,,,,,,,,0,29,29,29,487.8506648999901,,,,,,,,,,,,,487.8353209999914,487.8506648999901,487.8506648999901,487.8506648999901,490.81540549999045,,,,490.8230879000039,490.8338262999896,490.8338262999896,490.88109260000056,490.88137439999264,490.89758849999635,490.89758849999635,490.89758849999635,490.98074669999187,491.24830929999007,,,,,,,,,,,,,,,,,,,,,,down,2.962962300007348,None,space,0.3440802999975858,None,P151,001,2025-04-11_12h17.15.805,posner_endo_new1,2024.2.4,60.02483828028734,2025-04-11 12h17.22.045867 +0100,
cube_r.png,0.1,0.31,valid,30,30,0,down,2.6540454999922076,None,space,0.3292982999992091,None,,,,,,,,,0,30,30,30,491.2640129999927,,,,,,,,,,,,,491.2485383000021,491.2640129999927,491.2640129999927,491.2640129999927,493.92890099999204,,,,493.93657049999456,493.94726859999355,493.94726859999355,493.99482019999414,493.9950981000002,494.0110726999992,494.0110726999992,494.0110726999992,494.0943358999939,494.3451150000037,,,,,,,,,,,,,,,,,,,,,,down,2.6540454999922076,None,space,0.3292982999992091,None,P151,001,2025-04-11_12h17.15.805,posner_endo_new1,2024.2.4,60.02483828028734,2025-04-11 12h17.22.045867 +0100,
cube_l.png,0.1,-0.31,valid,31,31,0,down,2.668543599997065,None,space,0.3441177000058815,None,,,,,,,,,0,31,31,31,494.3608610999945,,,,,,,,,,,,,494.3453398999991,494.3608610999945,494.3608610999945,494.3608610999945,497.04224189999513,,,,497.0500008999952,497.0607974000013,497.0607974000013,497.1080093999917,497.10829289999674,497.1244541999913,497.1244541999913,497.1244541999913,497.2078401000035,497.4752405999898,,,,,,,,,,,,,,,,,,,,,,down,2.668543599997065,None,space,0.3441177000058815,None,P151,001,2025-04-11_12h17.15.805,posner_endo_new1,2024.2.4,60.02483828028734,2025-04-11 12h17.22.045867 +0100,
cube_r.png,0.1,0.31,valid,32,32,0,down,3.627085200001602,None,space,0.32023140000819694,None,,,,,,,,,0,32,32,32,497.4907772000006,,,,,,,,,,,,,497.4754821999959,497.4907772000006,497.4907772000006,497.4907772000006,501.12140979999094,,,,501.1290287000011,501.1398337999999,501.1398337999999,501.1871941999998,501.1874737999897,501.2035867999948,501.2035867999948,501.2035867999948,501.28696599999967,501.53758899999957,,,,,,,,,,,,,,,,,,,,,,down,3.627085200001602,None,space,0.32023140000819694,None,P151,001,2025-04-11_12h17.15.805,posner_endo_new1,2024.2.4,60.02483828028734,2025-04-11 12h17.22.045867 +0100,
cube_r.png,0.1,-0.31,invalid,33,33,0,down,3.4684943000029307,None,space,0.32554600000730716,None,,,,,,,,,0,33,33,33,501.55340910000086,,,,,,,,,,,,,501.5378225000022,501.55340910000086,501.55340910000086,501.55340910000086,505.0340634000022,,,,505.0416685999953,505.0526003999985,505.0526003999985,505.0998239000037,505.1001066000026,505.11632689999533,505.11632689999533,505.11632689999533,505.1997068999917,505.4502686999913,,,,,,,,,,,,,,,,,,,,,,down,3.4684943000029307,None,space,0.32554600000730716,None,P151,001,2025-04-11_12h17.15.805,posner_endo_new1,2024.2.4,60.02483828028734,2025-04-11 12h17.22.045867 +0100,
cube_r.png,0.1,10,catch,34,34,0,down,3.3409143000026233,None,None,,,,,,,,,,,0,34,34,34,505.46596239999053,,,,,,,,,,,,,505.4504923999921,505.46596239999053,505.46596239999053,505.46596239999053,508.8134946999926,,,,508.8211805000028,508.83207129999937,508.83207129999937,508.8793347000028,508.87961540000106,508.89583870000206,508.89583870000206,508.89583870000206,508.9790532999905,511.89340699999593,,,,510.99361489999865,511.90935669999453,511.90935669999453,511.90935669999453,,,,,,,,,,,,,,,down,3.3409143000026233,None,None,,,P151,001,2025-04-11_12h17.15.805,posner_endo_new1,2024.2.4,60.02483828028734,2025-04-11 12h17.22.045867 +0100,
cube_r.png,0.1,0.31,valid,35,35,0,down,3.6164868000050774,None,space,0.3116751000052318,None,,,,,,,,,0,35,35,35,511.90935669999453,,,,,,,,,,,,,511.8936141000013,511.90935669999453,511.90935669999453,511.90935669999453,515.5398961000028,,,,515.5476419999904,515.5585111999972,515.5585111999972,515.6058594999922,515.6061384999921,515.6222959000006,515.6222959000006,515.6222959000006,515.7055431999906,515.9395443999965,,,,,,,,,,,,,,,,,,,,,,down,3.6164868000050774,None,space,0.3116751000052318,None,P151,001,2025-04-11_12h17.15.805,posner_endo_new1,2024.2.4,60.02483828028734,2025-04-11 12h17.22.045867 +0100,
cube_r.png,0.1,-0.31,invalid,36,36,0,down,2.6118753000046127,None,space,0.302898499998264,None,,,,,,,,,0,36,36,36,515.9552324999968,,,,,,,,,,,,,515.9397785000037,515.9552324999968,515.9552324999968,515.9552324999968,518.5699840000016,,,,518.5759224999929,518.5877248999896,518.5877248999896,518.6356406999985,518.6358917000034,518.6523745000013,518.6523745000013,518.6523745000013,518.7186070000025,518.9696169999952,,,,,,,,,,,,,,,,,,,,,,down,2.6118753000046127,None,space,0.302898499998264,None,P151,001,2025-04-11_12h17.15.805,posner_endo_new1,2024.2.4,60.02483828028734,2025-04-11 12h17.22.045867 +0100,
cube_l.png,0.1,0.31,invalid,37,37,0,down,2.260676300007617,None,space,0.39814750000368804,None,,,,,,,,,0,37,37,37,518.9854902999941,,,,,,,,,,,,,518.9698016000038,518.9854902999941,518.9854902999941,518.9854902999941,521.2506748000014,,,,521.2566250999953,521.2680946999899,521.2680946999899,521.3163081999955,521.3165512999985,521.3330527999933,521.3330527999933,521.3330527999933,521.3998166999954,521.7335037000012,,,,,,,,,,,,,,,,,,,,,,down,2.260676300007617,None,space,0.39814750000368804,None,P151,001,2025-04-11_12h17.15.805,posner_endo_new1,2024.2.4,60.02483828028734,2025-04-11 12h17.22.045867 +0100,
cube_l.png,0.1,0.31,invalid,38,38,0,down,2.4879999999975553,None,space,0.20494549999420997,None,,,,,,,,,0,38,38,38,521.7493832999899,,,,,,,,,,,,,521.7336878999922,521.7493832999899,521.7493832999899,521.7493832999899,524.2476050999976,,,,524.253537800003,524.2650079000014,524.2650079000014,524.3134768000018,524.3137182999926,524.3295088000013,524.3295088000013,524.3295088000013,524.4132993999956,524.5471947999904,,,,,,,,,,,,,,,,,,,,,,down,2.4879999999975553,None,space,0.20494549999420997,None,P151,001,2025-04-11_12h17.15.805,posner_endo_new1,2024.2.4,60.02483828028734,2025-04-11 12h17.22.045867 +0100,
cube_r.png,0.1,0.31,valid,39,39,0,down,3.258992399991257,None,space,0.33446109999204054,None,,,,,,,,,0,39,39,39,524.5631225999969,,,,,,,,,,,,,524.5473857000034,524.5631225999969,524.5631225999969,524.5631225999969,527.8271791000006,,,,527.8331904999941,527.8445822999929,527.8445822999929,527.8931243999978,527.8933655000001,527.9097405999928,527.9097405999928,527.9097405999928,527.976159400001,528.2600702999916,,,,,,,,,,,,,,,,,,,,,,down,3.258992399991257,None,space,0.33446109999204054,None,P151,001,2025-04-11_12h17.15.805,posner_endo_new1,2024.2.4,60.02483828028734,2025-04-11 12h17.22.045867 +0100,
cube_l.png,0.1,0.31,invalid,40,40,0,down,3.4261830000032205,None,space,0.30669599999964703,None,,,,,,,,,0,40,40,40,528.2756950000039,,,,,,,,,,,,,528.2602475000022,528.2756950000039,528.2756950000039,528.2756950000039,531.7065247999999,,,,531.712537799991,531.7240122999938,531.7240122999938,531.7725174999941,531.7727602999948,531.7891219000012,531.7891219000012,531.7891219000012,531.855609899998,532.1060847999906,,,,,,,,,,,,,,,,,,,,,,down,3.4261830000032205,None,space,0.30669599999964703,None,P151,001,2025-04-11_12h17.15.805,posner_endo_new1,2024.2.4,60.02483828028734,2025-04-11 12h17.22.045867 +0100,
cube_l.png,0.1,10,catch,41,41,0,down,3.043332900007954,None,None,,,,,,,,,,,0,41,41,41,532.1220769999927,,,,,,,,,,,,,532.1062673999986,532.1220769999927,532.1220769999927,532.1220769999927,535.1706625999941,,,,535.18731139999,535.198390599995,535.198390599995,535.2355848000007,535.236101100003,535.2519984999963,535.2519984999963,535.2519984999963,535.3352466999931,538.2496496999956,,,,537.349919100001,538.2656994999998,538.2656994999998,538.2656994999998,,,,,,,,,,,,,,,down,3.043332900007954,None,None,,,P151,001,2025-04-11_12h17.15.805,posner_endo_new1,2024.2.4,60.02483828028734,2025-04-11 12h17.22.045867 +0100,
cube_l.png,0.1,-0.31,valid,42,42,0,down,0.30003160001069773,None,space,0.3322809999954188,None,,,,,,,,,0,42,42,42,538.2656994999998,,,,,,,,,,,,,538.2498360000027,538.2656994999998,538.2656994999998,538.2656994999998,538.5665668000001,,,,538.573229799993,538.5848796999926,538.5848796999926,538.632251499992,538.6325114999927,538.6487013000005,538.6487013000005,538.6487013000005,538.7320112000016,538.982808899993,,,,,,,,,,,,,,,,,,,,,,down,0.30003160001069773,None,space,0.3322809999954188,None,P151,001,2025-04-11_12h17.15.805,posner_endo_new1,2024.2.4,60.02483828028734,2025-04-11 12h17.22.045867 +0100,
cube_l.png,0.1,10,catch,43,43,0,down,3.063146800006507,None,None,,,,,,,,,,,0,43,43,43,538.9984446000017,,,,,,,,,,,,,538.9830093999917,538.9984446000017,538.9984446000017,538.9984446000017,542.0627421999961,,,,542.0693808999931,542.0809826999903,542.0809826999903,542.128652600004,542.1289112999948,542.144931399991,542.144931399991,542.144931399991,542.2281936999934,545.1425221999962,,,,544.24294679999,545.1585238999978,545.1585238999978,545.1585238999978,,,,,,,,,,,,,,,down,3.063146800006507,None,None,,,P151,001,2025-04-11_12h17.15.805,posner_endo_new1,2024.2.4,60.02483828028734,2025-04-11 12h17.22.045867 +0100,
cube_l.png,0.1,0.31,invalid,44,44,0,down,0.3270819000026677,None,space,0.33761399998911656,None,,,,,,,,,0,44,44,44,545.1585238999978,,,,,,,,,,,,,545.142703199992,545.1585238999978,545.1585238999978,545.1585238999978,545.4923041000002,,,,545.498952199996,545.5105979999935,545.5105979999935,545.5584996999969,545.5587400999939,545.5748200999951,545.5748200999951,545.5748200999951,545.6410856000002,545.925341299997,,,,,,,,,,,,,,,,,,,,,,down,0.3270819000026677,None,space,0.33761399998911656,None,P151,001,2025-04-11_12h17.15.805,posner_endo_new1,2024.2.4,60.02483828028734,2025-04-11 12h17.22.045867 +0100,
cube_l.png,0.1,0.31,invalid,45,45,0,down,3.368103599990718,None,space,0.3318972999986727,None,,,,,,,,,0,45,45,45,545.9412704999995,,,,,,,,,,,,,545.9255315999908,545.9412704999995,545.9412704999995,545.9412704999995,549.3215781999897,,,,549.3276789999945,549.3392860000022,549.3392860000022,549.3876333999942,549.3878780999949,549.4043328999978,549.4043328999978,549.4043328999978,549.4708515999955,549.7380242999934,,,,,,,,,,,,,,,,,,,,,,down,3.368103599990718,None,space,0.3318972999986727,None,P151,001,2025-04-11_12h17.15.805,posner_endo_new1,2024.2.4,60.02483828028734,2025-04-11 12h17.22.045867 +0100,
cube_r.png,0.1,0.31,valid,46,46,0,down,2.427841400000034,None,space,0.30880579999939073,None,,,,,,,,,0,46,46,46,549.7540008999931,,,,,,,,,,,,,549.7382029,549.7540008999931,549.7540008999931,549.7540008999931,552.185787800001,,,,552.1916945999983,552.2034387000022,552.2034387000022,552.2516036000015,552.2518711000012,552.2680544000032,552.2680544000032,552.2680544000032,552.35133949999,552.5852282999986,,,,,,,,,,,,,,,,,,,,,,down,2.427841400000034,None,space,0.30880579999939073,None,P151,001,2025-04-11_12h17.15.805,posner_endo_new1,2024.2.4,60.02483828028734,2025-04-11 12h17.22.045867 +0100,
cube_l.png,0.1,-0.31,valid,47,47,0,down,3.0048202000034507,None,space,0.29407250000804197,None,,,,,,,,,0,47,47,47,552.6012029999983,,,,,,,,,,,,,552.5854132999957,552.6012029999983,552.6012029999983,552.6012029999983,555.6150653999939,,,,555.6210425000027,555.6323832999915,555.6323832999915,555.6812011000002,555.6814423000033,555.6979024000029,555.6979024000029,555.6979024000029,555.7644610999996,555.9985285000002,,,,,,,,,,,,,,,,,,,,,,down,3.0048202000034507,None,space,0.29407250000804197,None,P151,001,2025-04-11_12h17.15.805,posner_endo_new1,2024.2.4,60.02483828028734,2025-04-11 12h17.22.045867 +0100,
cube_r.png,0.1,-0.31,invalid,48,48,0,down,2.879489500002819,None,space,0.31102069999906234,None,,,,,,,,,0,48,48,48,556.0138749999896,,,,,,,,,,,,,555.9987200000032,556.0138749999896,556.0138749999896,556.0138749999896,558.8954884999985,,,,558.9014353999955,558.912849699991,558.912849699991,558.9612942999956,558.9615441999922,558.9778600999998,558.9778600999998,558.9778600999998,559.0611953999905,559.2950410999911,,,,,,,,,,,,,,,,,,,,,,down,2.879489500002819,None,space,0.31102069999906234,None,P151,001,2025-04-11_12h17.15.805,posner_endo_new1,2024.2.4,60.02483828028734,2025-04-11 12h17.22.045867 +0100,
cube_r.png,0.1,10,catch,49,49,0,down,2.894500299997162,None,None,,,,,,,,,,,0,49,49,49,559.310985899996,,,,,,,,,,,,,559.2952284999919,559.310985899996,559.310985899996,559.310985899996,562.2087364999898,,,,562.2147277999902,562.2264692000026,562.2264692000026,562.2744922999991,562.2747369999997,562.2912198999984,562.2912198999984,562.2912198999984,562.374364000003,565.2886192000005,,,,564.3888271000033,565.3046920999914,565.3046920999914,565.3046920999914,,,,,,,,,,,,,,,down,2.894500299997162,None,None,,,P151,001,2025-04-11_12h17.15.805,posner_endo_new1,2024.2.4,60.02483828028734,2025-04-11 12h17.22.045867 +0100,
cube_l.png,0.1,-0.31,valid,50,50,0,down,None,None,space,0.3306180000072345,None,,,,,,,,,0,50,50,50,565.3046920999914,,,,,,,,,,,,,565.2887885999953,565.3046920999914,565.3046920999914,565.3046920999914,565.6055660999991,,,,565.6115509999945,565.6232080999907,565.6232080999907,565.6711278000002,565.6713705000002,565.687731500002,565.687731500002,565.687731500002,565.770858799995,566.0215962999937,,,,,,,,,,,,,,,,,,,,,,down,None,None,space,0.3306180000072345,None,P151,001,2025-04-11_12h17.15.805,posner_endo_new1,2024.2.4,60.02483828028734,2025-04-11 12h17.22.045867 +0100,
cube_l.png,0.1,-0.31,valid,51,51,0,down,2.816305199987255,None,space,0.32579050000640564,None,,,,,,,,,0,51,51,51,566.0373714000016,,,,,,,,,,,,,566.0217796999932,566.0373714000016,566.0373714000016,566.0373714000016,568.8685456999956,,,,568.8744380999997,568.8858493000007,568.8858493000007,568.9344850999914,568.9347310000012,568.9508969000017,568.9508969000017,568.9508969000017,569.017603500004,569.284985899998,,,,,,,,,,,,,,,,,,,,,,down,2.816305199987255,None,space,0.32579050000640564,None,P151,001,2025-04-11_12h17.15.805,posner_endo_new1,2024.2.4,60.02483828028734,2025-04-11 12h17.22.045867 +0100,
cube_r.png,0.1,-0.31,invalid,52,52,0,down,2.7292775999958394,None,space,0.33047220000298694,None,,,,,,,,,0,52,52,52,569.3002113999974,,,,,,,,,,,,,569.2851785999956,569.3002113999974,569.3002113999974,569.3002113999974,572.0320081999962,,,,572.0379354000033,572.049342600003,572.049342600003,572.0980211999995,572.0982691999961,572.1144396000018,572.1144396000018,572.1144396000018,572.197699700002,572.4478885999997,,,,,,,,,,,,,,,,,,,,,,down,2.7292775999958394,None,space,0.33047220000298694,None,P151,001,2025-04-11_12h17.15.805,posner_endo_new1,2024.2.4,60.02483828028734,2025-04-11 12h17.22.045867 +0100,
cube_l.png,0.1,-0.31,valid,53,53,0,down,3.141707300004782,None,space,0.3279617999942275,None,,,,,,,,,0,53,53,53,572.4641981000022,,,,,,,,,,,,,572.4480650999903,572.4641981000022,572.4641981000022,572.4641981000022,575.6118208999978,,,,575.6177812999958,575.6292708999972,575.6292708999972,575.677594599998,575.6778457000037,575.6941059999954,575.6941059999954,575.6941059999954,575.777393700002,576.0275428000023,,,,,,,,,,,,,,,,,,,,,,down,3.141707300004782,None,space,0.3279617999942275,None,P151,001,2025-04-11_12h17.15.805,posner_endo_new1,2024.2.4,60.02483828028734,2025-04-11 12h17.22.045867 +0100,
cube_r.png,0.1,10,catch,54,54,0,down,3.066308299996308,None,None,,,,,,,,,,,0,54,54,54,576.0437929999898,,,,,,,,,,,,,576.027716800003,576.0437929999898,576.0437929999898,576.0437929999898,579.1247507999942,,,,579.1308128999954,579.1423250999942,579.1423250999942,579.1905916999967,579.1908376999927,579.2068026999914,579.2068026999914,579.2068026999914,579.2737737999996,582.2046659999905,,,,581.2884577999939,582.2206638999924,582.2206638999924,582.2206638999924,,,,,,,,,,,,,,,down,3.066308299996308,None,None,,,P151,001,2025-04-11_12h17.15.805,posner_endo_new1,2024.2.4,60.02483828028734,2025-04-11 12h17.22.045867 +0100,
cube_l.png,0.1,0.31,invalid,55,55,0,down,0.16882199999236036,None,space,0.4102073000103701,None,,,,,,,,,0,55,55,55,582.2206638999924,,,,,,,,,,,,,582.2048387999967,582.2206638999924,582.2206638999924,582.2206638999924,582.4047257999919,,,,582.4107780999911,582.422498999993,582.422498999993,582.4702089999919,582.4704504999972,582.4867655999988,582.4867655999988,582.4867655999988,582.570438499999,582.9042874000006,,,,,,,,,,,,,,,,,,,,,,down,0.16882199999236036,None,space,0.4102073000103701,None,P151,001,2025-04-11_12h17.15.805,posner_endo_new1,2024.2.4,60.02483828028734,2025-04-11 12h17.22.045867 +0100,
cube_l.png,0.1,-0.31,valid,56,56,0,down,2.653253800002858,None,space,0.35781370000040624,None,,,,,,,,,0,56,56,56,582.920077799994,,,,,,,,,,,,,582.904469000001,582.920077799994,582.920077799994,582.920077799994,585.5847058999934,,,,585.5906978999992,585.6021308999916,585.6021308999916,585.650634199992,585.6508785999904,585.667145600004,585.667145600004,585.667145600004,585.733768799997,586.034175599998,,,,,,,,,,,,,,,,,,,,,,down,2.653253800002858,None,space,0.35781370000040624,None,P151,001,2025-04-11_12h17.15.805,posner_endo_new1,2024.2.4,60.02483828028734,2025-04-11 12h17.22.045867 +0100,
cube_r.png,0.1,0.31,valid,57,57,0,down,2.4519321999978274,None,space,0.3367307000007713,None,,,,,,,,,0,57,57,57,586.0497028999962,,,,,,,,,,,,,586.0343563999922,586.0497028999962,586.0497028999962,586.0497028999962,588.5150727,,,,588.5210896999924,588.5326628000039,588.5326628000039,588.5809426999913,588.5811848000012,588.5975857000012,588.5975857000012,588.5975857000012,588.6642390999914,588.947989799999,,,,,,,,,,,,,,,,,,,,,,down,2.4519321999978274,None,space,0.3367307000007713,None,P151,001,2025-04-11_12h17.15.805,posner_endo_new1,2024.2.4,60.02483828028734,2025-04-11 12h17.22.045867 +0100,
cube_r.png,0.1,-0.31,invalid,58,58,0,down,3.099038800006383,None,space,0.2883908999938285,None,,,,,,,,,0,58,58,58,588.9635033999948,,,,,,,,,,,,,588.9481738000031,588.9635033999948,588.9635033999948,588.9635033999948,592.0781811999914,,,,592.08409389999,592.0956845999899,592.0956845999899,592.1438989000017,592.1441393999994,592.1605160000036,592.1605160000036,592.1605160000036,592.2439331999922,592.4609933000029,,,,,,,,,,,,,,,,,,,,,,down,3.099038800006383,None,space,0.2883908999938285,None,P151,001,2025-04-11_12h17.15.805,posner_endo_new1,2024.2.4,60.02483828028734,2025-04-11 12h17.22.045867 +0100,
cube_l.png,0.1,0.31,invalid,59,59,0,down,3.0328014999977313,None,space,0.34683720000612084,None,,,,,,,,,0,59,59,59,592.4769279000029,,,,,,,,,,,,,592.4611790999916,592.4769279000029,592.4769279000029,592.4769279000029,595.5246530000004,,,,595.5305162000004,595.5419095999969,595.5419095999969,595.5903872999916,595.5906373999896,595.6070682999998,595.6070682999998,595.6070682999998,595.6902750000008,595.9571563999925,,,,,,,,,,,,,,,,,,,,,,down,3.0328014999977313,None,space,0.34683720000612084,None,P151,001,2025-04-11_12h17.15.805,posner_endo_new1,2024.2.4,60.02483828028734,2025-04-11 12h17.22.045867 +0100,
