cue_img,cue_soa,target_x,trial,thisN,thisTrialN,thisRepN,key_control2.keys,key_control2.rt,key_control2.duration,key_resp.keys,key_resp.rt,key_resp.duration,practice.thisRepN,practice.thisTrialN,practice.thisN,practice.thisIndex,block1.thisRepN,block1.thisTrialN,block1.thisN,block1.thisIndex,block2.thisRepN,block2.thisTrialN,block2.thisN,block2.thisIndex,thisRow.t,notes,instructions.started,instructions_txt.started,key_control.started,instructions.stopped,key_control.keys,key_control.rt,key_control.duration,ready.started,ready_txt.started,ready_txt.stopped,ready.stopped,fix.started,fixation.started,key_control2.started,fixation_cross.started,fix.stopped,practice.key_control2.keys,practice.key_control2.rt,practice.key_control2.duration,cue.started,cube.started,fixation_cross_cue.started,cue.stopped,target.started,fixation_target.started,fixation_cross_target.started,key_resp.started,star.started,target.stopped,practice.key_resp.keys,practice.key_resp.rt,practice.key_resp.duration,star.stopped,fixation_target.stopped,fixation_cross_target.stopped,key_resp.stopped,block1.key_control2.keys,block1.key_control2.rt,block1.key_control2.duration,block1.key_resp.keys,block1.key_resp.rt,block1.key_resp.duration,break_2.started,text.started,key_control3.started,text.stopped,break_2.stopped,key_control3.keys,key_control3.rt,key_control3.duration,block2.key_control2.keys,block2.key_control2.rt,block2.key_control2.duration,block2.key_resp.keys,block2.key_resp.rt,block2.key_resp.duration,participant,session,date,expName,psychopyVersion,frameRate,expStart,
,,,,,,,,,,,,,,,,,,,,,,,,,,,0.007462699999450706,0.02461110000149347,0.02461110000149347,9.069088199990802,up,9.026424299998325,None,,,,,,,,,,,,,,,,,,,,,,,,,,,,,,,,,,,,,,,,,,,,,,,,,,P152,001,2025-04-11_14h06.16.315,posner_endo_new1,2024.2.4,59.98911797145087,2025-04-11 14h06.22.994149 +0100,
,,,,,,,,,,,,,,,,,,,,,,,,,,,,,,,,,,9.069126399990637,9.082721200000378,12.110604200002854,12.064549399990938,,,,,,,,,,,,,,,,,,,,,,,,,,,,,,,,,,,,,,,,,,,,,,P152,001,2025-04-11_14h06.16.315,posner_endo_new1,2024.2.4,59.98911797145087,2025-04-11 14h06.22.994149 +0100,
cube_l.png,0.1,-0.31,valid,0,0,0,down,23.07569290000538,None,space,0.36354299999948125,None,0,0,0,4,,,,,,,,,12.110604200002854,,,,,,,,,,,,,12.093023199995514,12.110604200002854,12.110604200002854,12.110604200002854,35.19220320000022,down,23.07569290000538,None,35.21958679999807,35.23221529999864,35.23221529999864,35.25351470000169,35.25377480000316,35.272030399995856,35.272030399995856,35.272030399995856,35.355914500003564,35.641487499990035,space,0.36354299999948125,None,,,,,,,,,,,,,,,,,,,,,,,,,P152,001,2025-04-11_14h06.16.315,posner_endo_new1,2024.2.4,59.98911797145087,2025-04-11 14h06.22.994149 +0100,
cube_r.png,0.1,0.31,valid,1,1,0,down,4.306844699996873,None,space,0.28873129999556113,None,0,1,1,10,,,,,,,,,35.65579760000401,,,,,,,,,,,,,35.64204099999915,35.65579760000401,35.65579760000401,35.65579760000401,39.9690888000041,down,4.306844699996873,None,39.98220600000059,39.99228730000323,39.99228730000323,40.0342088000034,40.03462500000023,40.050729700000375,40.050729700000375,40.050729700000375,40.13393409999844,40.35174949999782,space,0.28873129999556113,None,,,,,,,,,,,,,,,,,,,,,,,,,P152,001,2025-04-11_14h06.16.315,posner_endo_new1,2024.2.4,59.98911797145087,2025-04-11 14h06.22.994149 +0100,
cube_l.png,0.1,0.31,invalid,2,2,0,down,2.7301142000069376,None,space,0.5245026999909896,None,0,2,2,5,,,,,,,,,40.367150799997034,,,,,,,,,,,,,40.35205750000023,40.367150799997034,40.367150799997034,40.367150799997034,43.098951599997235,down,2.7301142000069376,None,43.11159359999874,43.12167919999047,43.12167919999047,43.16433299999335,43.1645933999971,43.180921299994225,43.180921299994225,43.180921299994225,43.264334299994516,43.71499720000429,space,0.5245026999909896,None,,,,,,,,,,,,,,,,,,,,,,,,,P152,001,2025-04-11_14h06.16.315,posner_endo_new1,2024.2.4,59.98911797145087,2025-04-11 14h06.22.994149 +0100,
cube_l.png,0.1,0.31,invalid,3,3,0,down,7.286826499999734,None,space,0.2939489999989746,None,0,3,3,1,,,,,,,,,43.73040879999462,,,,,,,,,,,,,43.715308899991214,43.73040879999462,43.73040879999462,43.73040879999462,51.02406779999728,down,7.286826499999734,None,51.0367741999944,51.0471031999914,51.0471031999914,51.08947140000237,51.08973419999529,51.106139299998176,51.106139299998176,51.106139299998176,51.18935849999252,51.406883499992546,space,0.2939489999989746,None,,,,,,,,,,,,,,,,,,,,,,,,,P152,001,2025-04-11_14h06.16.315,posner_endo_new1,2024.2.4,59.98911797145087,2025-04-11 14h06.22.994149 +0100,
cube_r.png,0.1,-0.31,invalid,4,4,0,down,5.338630300000659,None,space,0.3960098000097787,None,0,4,4,9,,,,,,,,,51.42282079999859,,,,,,,,,,,,,51.407084299993585,51.42282079999859,51.42282079999859,51.42282079999859,56.76831519999541,down,5.338630300000659,None,56.778891699999804,56.78884339999058,56.78884339999058,56.8339827000018,56.83424470000318,56.85025789999054,56.85025789999054,56.85025789999054,56.93375480000395,57.25077339999552,space,0.3960098000097787,None,,,,,,,,,,,,,,,,,,,,,,,,,P152,001,2025-04-11_14h06.16.315,posner_endo_new1,2024.2.4,59.98911797145087,2025-04-11 14h06.22.994149 +0100,
cube_r.png,0.1,-0.31,invalid,5,5,0,down,4.911152100001345,None,space,0.3331280999991577,None,0,5,5,2,,,,,,,,,57.266687600000296,,,,,,,,,,,,,57.25096740000299,57.266687600000296,57.266687600000296,57.266687600000296,62.18047969999316,down,4.911152100001345,None,62.19914299999073,62.21061359999294,62.21061359999294,62.24469579999277,62.24498109999695,62.26156549999723,62.26156549999723,62.26156549999723,62.344906700003776,62.596756799990544,space,0.3331280999991577,None,,,,,,,,,,,,,,,,,,,,,,,,,P152,001,2025-04-11_14h06.16.315,posner_endo_new1,2024.2.4,59.98911797145087,2025-04-11 14h06.22.994149 +0100,
cube_r.png,0.1,0.31,valid,6,6,0,down,9.357857499999227,None,space,0.34555279999040067,None,0,6,6,7,,,,,,,,,62.61133689999406,,,,,,,,,,,,,62.597191799999564,62.61133689999406,62.61133689999406,62.61133689999406,71.98619680000411,down,9.357857499999227,None,71.99752389999048,72.00753319999785,72.00753319999785,72.05145569999877,72.05180010000186,72.06847199999902,72.06847199999902,72.06847199999902,72.15138450000086,72.41907789999095,space,0.34555279999040067,None,,,,,,,,,,,,,,,,,,,,,,,,,P152,001,2025-04-11_14h06.16.315,posner_endo_new1,2024.2.4,59.98911797145087,2025-04-11 14h06.22.994149 +0100,
cube_r.png,0.1,10,catch,7,7,0,down,3.8711075999890454,None,None,,,0,7,7,3,,,,,,,,,72.43449699999474,,,,,,,,,,,,,72.41935199999716,72.43449699999474,72.43449699999474,72.43449699999474,76.31523520000337,down,3.8711075999890454,None,76.32657550000295,76.33694419999665,76.33694419999665,76.38083569999435,76.38117969999439,76.39727760000096,76.39727760000096,76.39727760000096,76.48044269999082,79.39480919999187,None,,,78.4951876999985,79.4108758999937,79.4108758999937,79.4108758999937,,,,,,,,,,,,,,,,,,,,,P152,001,2025-04-11_14h06.16.315,posner_endo_new1,2024.2.4,59.98911797145087,2025-04-11 14h06.22.994149 +0100,
cube_r.png,0.1,-0.31,invalid,8,8,0,down,0.9586065000039525,None,space,0.5086639999935869,None,0,8,8,6,,,,,,,,,79.4108758999937,,,,,,,,,,,,,79.39506369999435,79.4108758999937,79.4108758999937,79.4108758999937,80.37755509999988,down,0.9586065000039525,None,80.38886429999548,80.39910609999788,80.39910609999788,80.443334399999,80.44368480000412,80.45995859999675,80.45995859999675,80.45995859999675,80.54262399999425,80.9772554999945,space,0.5086639999935869,None,,,,,,,,,,,,,,,,,,,,,,,,,P152,001,2025-04-11_14h06.16.315,posner_endo_new1,2024.2.4,59.98911797145087,2025-04-11 14h06.22.994149 +0100,
cube_l.png,0.1,-0.31,valid,9,9,0,down,6.545442099988577,None,space,0.36299479998706374,None,0,9,9,0,,,,,,,,,80.99220579999383,,,,,,,,,,,,,80.97752869999385,80.99220579999383,80.99220579999383,80.99220579999383,87.5533790000045,down,6.545442099988577,None,87.56504489999497,87.57525719999103,87.57525719999103,87.6191026000015,87.61944860000222,87.63573419999739,87.63573419999739,87.63573419999739,87.71894369999063,88.00343250000151,space,0.36299479998706374,None,,,,,,,,,,,,,,,,,,,,,,,,,P152,001,2025-04-11_14h06.16.315,posner_endo_new1,2024.2.4,59.98911797145087,2025-04-11 14h06.22.994149 +0100,
cube_l.png,0.1,-0.31,valid,10,10,0,down,5.143741899999441,None,space,0.3384141999995336,None,0,10,10,8,,,,,,,,,88.01839099999052,,,,,,,,,,,,,88.00371689999884,88.01839099999052,88.01839099999052,88.01839099999052,93.16459279999253,down,5.143741899999441,None,93.17583530000411,93.18621109999367,93.18621109999367,93.23003239999525,93.2303813000035,93.24668549999478,93.24668549999478,93.24668549999478,93.32986769999843,93.59758299999521,space,0.3384141999995336,None,,,,,,,,,,,,,,,,,,,,,,,,,P152,001,2025-04-11_14h06.16.315,posner_endo_new1,2024.2.4,59.98911797145087,2025-04-11 14h06.22.994149 +0100,
,,,,,,,,,,,,,,,,,,,,,,,,,,,,,,,,,,93.59776009999041,93.6129809999984,96.62398879999819,96.59379640000407,,,,,,,,,,,,,,,,,,,,,,,,,,,,,,,,,,,,,,,,,,,,,,P152,001,2025-04-11_14h06.16.315,posner_endo_new1,2024.2.4,59.98911797145087,2025-04-11 14h06.22.994149 +0100,
cube_l.png,0.1,10,catch,0,0,0,down,10.626589999999851,None,None,,,,,,,0,0,0,0,,,,,96.62398879999819,,,,,,,,,,,,,96.61516809999011,96.62398879999819,96.62398879999819,96.62398879999819,107.26677210000344,,,,107.2783255999966,107.28824290000193,107.28824290000193,107.33194879999792,107.33220129999972,107.34865820000414,107.34865820000414,107.34865820000414,107.43189829999756,110.34638119999727,,,,109.44658829999389,110.36210869999195,110.36210869999195,110.36210869999195,down,10.626589999999851,None,None,,,,,,,,,,,,,,,,,P152,001,2025-04-11_14h06.16.315,posner_endo_new1,2024.2.4,59.98911797145087,2025-04-11 14h06.22.994149 +0100,
cube_l.png,0.1,10,catch,1,1,0,down,2.6070637999946484,None,None,,,,,,,0,1,1,1,,,,,110.36210869999195,,,,,,,,,,,,,110.34664390000398,110.36210869999195,110.36210869999195,110.36210869999195,112.97738090000348,,,,112.98879950000264,112.99898839999514,112.99898839999514,113.04319609999948,113.043539899998,113.05948290000379,113.05948290000379,113.05948290000379,113.14261619999888,116.05751820000296,,,,115.15768069999467,116.07304210000439,116.07304210000439,116.07304210000439,down,2.6070637999946484,None,None,,,,,,,,,,,,,,,,,P152,001,2025-04-11_14h06.16.315,posner_endo_new1,2024.2.4,59.98911797145087,2025-04-11 14h06.22.994149 +0100,
cube_l.png,0.1,0.31,invalid,2,2,0,down,1.1682670000009239,None,space,0.4346384999953443,None,,,,,0,2,2,2,,,,,116.07304210000439,,,,,,,,,,,,,116.05778109999665,116.07304210000439,116.07304210000439,116.07304210000439,117.25627769999846,,,,117.26763669999491,117.27771660000144,117.27771660000144,117.3216831000027,117.32192930000019,117.33849749999354,117.33849749999354,117.33849749999354,117.42158569999447,117.78895249999186,,,,,,,,down,1.1682670000009239,None,space,0.4346384999953443,None,,,,,,,,,,,,,,,P152,001,2025-04-11_14h06.16.315,posner_endo_new1,2024.2.4,59.98911797145087,2025-04-11 14h06.22.994149 +0100,
cube_l.png,0.1,0.31,invalid,3,3,0,down,3.885095100005856,None,space,0.40655929999775253,None,,,,,0,3,3,3,,,,,117.80458440000075,,,,,,,,,,,,,117.78915399999823,117.80458440000075,117.80458440000075,117.80458440000075,121.70220299999346,,,,121.71351950000098,121.72376090000034,121.72376090000034,121.76753149999422,121.76788040000247,121.78410199999053,121.78410199999053,121.78410199999053,121.86733470000036,122.20150999999896,,,,,,,,down,3.885095100005856,None,space,0.40655929999775253,None,,,,,,,,,,,,,,,P152,001,2025-04-11_14h06.16.315,posner_endo_new1,2024.2.4,59.98911797145087,2025-04-11 14h06.22.994149 +0100,
cube_l.png,0.1,-0.31,valid,4,4,0,down,3.6087590000097407,None,space,0.322462700001779,None,,,,,0,4,4,4,,,,,122.21685769999749,,,,,,,,,,,,,122.20179949999147,122.21685769999749,122.21685769999749,122.21685769999749,125.83121160000155,,,,125.8395848999935,125.84950689999096,125.84950689999096,125.89668879999954,125.89720680000028,125.91310180000437,125.91310180000437,125.91310180000437,125.99632170000405,126.24785079999128,,,,,,,,down,3.6087590000097407,None,space,0.322462700001779,None,,,,,,,,,,,,,,,P152,001,2025-04-11_14h06.16.315,posner_endo_new1,2024.2.4,59.98911797145087,2025-04-11 14h06.22.994149 +0100,
cube_r.png,0.1,-0.31,invalid,5,5,0,down,4.370820199997979,None,space,0.41854220000095665,None,,,,,0,5,5,5,,,,,126.26271969999652,,,,,,,,,,,,,126.24827499999083,126.26271969999652,126.26271969999652,126.26271969999652,130.64300430000003,,,,130.65424309999798,130.66441650000343,130.66441650000343,130.70845479999844,130.70880029999535,130.72473170000012,130.72473170000012,130.72473170000012,130.80815599999914,131.15881069999887,,,,,,,,down,4.370820199997979,None,space,0.41854220000095665,None,,,,,,,,,,,,,,,P152,001,2025-04-11_14h06.16.315,posner_endo_new1,2024.2.4,59.98911797145087,2025-04-11 14h06.22.994149 +0100,
cube_r.png,0.1,0.31,valid,6,6,0,down,5.4192650000040885,None,space,0.3315985999943223,None,,,,,0,6,6,6,,,,,131.17462229999364,,,,,,,,,,,,,131.15909410000313,131.17462229999364,131.17462229999364,131.17462229999364,136.60352129999956,,,,136.61494649999077,136.6252567999909,136.6252567999909,136.66925989999436,136.66960159999144,136.68515379999008,136.68515379999008,136.68515379999008,136.76882240000123,137.0197887999966,,,,,,,,down,5.4192650000040885,None,space,0.3315985999943223,None,,,,,,,,,,,,,,,P152,001,2025-04-11_14h06.16.315,posner_endo_new1,2024.2.4,59.98911797145087,2025-04-11 14h06.22.994149 +0100,
cube_r.png,0.1,-0.31,invalid,7,7,0,down,4.534520599991083,None,space,0.35688599999411963,None,,,,,0,7,7,7,,,,,137.03513229999226,,,,,,,,,,,,,137.02007250000315,137.03513229999226,137.03513229999226,137.03513229999226,141.58175440000196,,,,141.59326470000087,141.6035428000032,141.6035428000032,141.6473879999976,141.64773869999044,141.6635055999941,141.6635055999941,141.6635055999941,141.7470670999901,142.0313538999908,,,,,,,,down,4.534520599991083,None,space,0.35688599999411963,None,,,,,,,,,,,,,,,P152,001,2025-04-11_14h06.16.315,posner_endo_new1,2024.2.4,59.98911797145087,2025-04-11 14h06.22.994149 +0100,
cube_l.png,0.1,-0.31,valid,8,8,0,down,4.578699999998207,None,space,0.2966125999955693,None,,,,,0,8,8,8,,,,,142.0467817000026,,,,,,,,,,,,,142.03164020000258,142.0467817000026,142.0467817000026,142.0467817000026,146.62675799999852,,,,146.6381024000002,146.64842139999382,146.64842139999382,146.69175879999239,146.69200640000054,146.7087612000032,146.7087612000032,146.7087612000032,146.79203679999046,147.00919769999746,,,,,,,,down,4.578699999998207,None,space,0.2966125999955693,None,,,,,,,,,,,,,,,P152,001,2025-04-11_14h06.16.315,posner_endo_new1,2024.2.4,59.98911797145087,2025-04-11 14h06.22.994149 +0100,
cube_r.png,0.1,-0.31,invalid,9,9,0,down,6.264875499997288,None,space,0.36843560000124853,None,,,,,0,9,9,9,,,,,147.02497879999282,,,,,,,,,,,,,147.00939310000103,147.02497879999282,147.02497879999282,147.02497879999282,153.30306900000141,,,,153.31437589999405,153.32463940000162,153.32463940000162,153.36861069999577,153.36895930000173,153.38515380000172,153.38515380000172,153.38515380000172,153.468240599992,153.76883929999894,,,,,,,,down,6.264875499997288,None,space,0.36843560000124853,None,,,,,,,,,,,,,,,P152,001,2025-04-11_14h06.16.315,posner_endo_new1,2024.2.4,59.98911797145087,2025-04-11 14h06.22.994149 +0100,
cube_l.png,0.1,0.31,invalid,10,10,0,down,4.632894499998656,None,space,0.34231890000228304,None,,,,,0,10,10,10,,,,,153.78454779999447,,,,,,,,,,,,,153.76912319999246,153.78454779999447,153.78454779999447,153.78454779999447,158.4308052999986,,,,158.44216269999743,158.4524506000016,158.4524506000016,158.4962852000026,158.49653429999307,158.51311529999657,158.51311529999657,158.51311529999657,158.5960328999936,158.86369749999722,,,,,,,,down,4.632894499998656,None,space,0.34231890000228304,None,,,,,,,,,,,,,,,P152,001,2025-04-11_14h06.16.315,posner_endo_new1,2024.2.4,59.98911797145087,2025-04-11 14h06.22.994149 +0100,
cube_r.png,0.1,-0.31,invalid,11,11,0,down,5.866312900005141,None,space,0.4053134999994654,None,,,,,0,11,11,11,,,,,158.87919110000075,,,,,,,,,,,,,158.86389019999478,158.87919110000075,158.87919110000075,158.87919110000075,164.75779540000076,,,,164.7649659000017,164.77639199999976,164.77639199999976,164.8235643999942,164.82406099999207,164.84002209999016,164.84002209999016,164.84002209999016,164.92327790000127,165.25792119999824,,,,,,,,down,5.866312900005141,None,space,0.4053134999994654,None,,,,,,,,,,,,,,,P152,001,2025-04-11_14h06.16.315,posner_endo_new1,2024.2.4,59.98911797145087,2025-04-11 14h06.22.994149 +0100,
cube_r.png,0.1,0.31,valid,12,12,0,down,5.769148800012772,None,space,0.3942535999958636,None,,,,,0,12,12,12,,,,,165.27284930000314,,,,,,,,,,,,,165.25834759999998,165.27284930000314,165.27284930000314,165.27284930000314,171.0516515999916,,,,171.0630388999998,171.0733859000029,171.0733859000029,171.1170126999932,171.11735749999934,171.13361989999248,171.13361989999248,171.13361989999248,171.21676090000255,171.5343389000045,,,,,,,,down,5.769148800012772,None,space,0.3942535999958636,None,,,,,,,,,,,,,,,P152,001,2025-04-11_14h06.16.315,posner_endo_new1,2024.2.4,59.98911797145087,2025-04-11 14h06.22.994149 +0100,
cube_l.png,0.1,10,catch,13,13,0,down,5.5884588999906555,None,None,,,,,,,0,13,13,13,,,,,171.54964699999255,,,,,,,,,,,,,171.53462880000006,171.54964699999255,171.54964699999255,171.54964699999255,177.14533489999303,,,,177.15679579999414,177.16705170000205,177.16705170000205,177.21055269999488,177.21089709999796,177.2274258999969,177.2274258999969,177.2274258999969,177.3105796000018,180.22479169999133,,,,179.32518089999212,180.24098980000417,180.24098980000417,180.24098980000417,down,5.5884588999906555,None,None,,,,,,,,,,,,,,,,,P152,001,2025-04-11_14h06.16.315,posner_endo_new1,2024.2.4,59.98911797145087,2025-04-11 14h06.22.994149 +0100,
cube_r.png,0.1,-0.31,invalid,14,14,0,down,2.5125793000042904,None,space,0.38640760000271257,None,,,,,0,14,14,14,,,,,180.24098980000417,,,,,,,,,,,,,180.22506830000202,180.24098980000417,180.24098980000417,180.24098980000417,182.75603109999793,,,,182.76742899999954,182.7776651000022,182.7776651000022,182.82198910000443,182.8223350000044,182.83807489999162,182.83807489999162,182.83807489999162,182.92128830000001,183.23873019999883,,,,,,,,down,2.5125793000042904,None,space,0.38640760000271257,None,,,,,,,,,,,,,,,P152,001,2025-04-11_14h06.16.315,posner_endo_new1,2024.2.4,59.98911797145087,2025-04-11 14h06.22.994149 +0100,
cube_l.png,0.1,-0.31,valid,15,15,0,down,3.7390902000042843,None,space,0.29464849999931175,None,,,,,0,15,15,15,,,,,183.25464590000047,,,,,,,,,,,,,183.23901750000368,183.25464590000047,183.25464590000047,183.25464590000047,187.00157870000112,,,,187.00985950000177,187.02010359999258,187.02010359999258,187.06754150000052,187.06808660000388,187.08393789999536,187.08393789999536,187.08393789999536,187.1671869999991,187.38561529999424,,,,,,,,down,3.7390902000042843,None,space,0.29464849999931175,None,,,,,,,,,,,,,,,P152,001,2025-04-11_14h06.16.315,posner_endo_new1,2024.2.4,59.98911797145087,2025-04-11 14h06.22.994149 +0100,
cube_r.png,0.1,10,catch,16,16,0,down,4.250057199998992,None,None,,,,,,,0,16,16,16,,,,,187.40026300000318,,,,,,,,,,,,,187.38610059999337,187.40026300000318,187.40026300000318,187.40026300000318,191.66440449999936,,,,191.6829476999992,191.69340160000138,191.69340160000138,191.72885149999638,191.72916079999413,191.74558279999474,191.74558279999474,191.74558279999474,191.82908879999013,194.74315429999842,,,,193.84343239999725,194.75938750000205,194.75938750000205,194.75938750000205,down,4.250057199998992,None,None,,,,,,,,,,,,,,,,,P152,001,2025-04-11_14h06.16.315,posner_endo_new1,2024.2.4,59.98911797145087,2025-04-11 14h06.22.994149 +0100,
cube_r.png,0.1,10,catch,17,17,0,down,1.866425000000163,None,None,,,,,,,0,17,17,17,,,,,194.75938750000205,,,,,,,,,,,,,194.74339150000014,194.75938750000205,194.75938750000205,194.75938750000205,196.6427182000043,,,,196.6611247999972,196.67246709999745,196.67246709999745,196.7070490999904,196.70733469999686,196.7239125999913,196.7239125999913,196.7239125999913,196.807272799997,199.72212179999042,,,,198.82192740000028,199.73767139999836,199.73767139999836,199.73767139999836,down,1.866425000000163,None,None,,,,,,,,,,,,,,,,,P152,001,2025-04-11_14h06.16.315,posner_endo_new1,2024.2.4,59.98911797145087,2025-04-11 14h06.22.994149 +0100,
cube_l.png,0.1,0.31,invalid,18,18,0,down,3.247597900000983,None,space,0.48828070001036394,None,,,,,0,18,18,18,,,,,199.73767139999836,,,,,,,,,,,,,199.7225555999903,199.73767139999836,199.73767139999836,199.73767139999836,203.0026974999928,,,,203.02077219999046,203.03207249999105,203.03207249999105,203.06750809999357,203.0678634999931,203.08415039999818,203.08415039999818,203.08415039999818,203.16747359999863,203.5855681999965,,,,,,,,down,3.247597900000983,None,space,0.48828070001036394,None,,,,,,,,,,,,,,,P152,001,2025-04-11_14h06.16.315,posner_endo_new1,2024.2.4,59.98911797145087,2025-04-11 14h06.22.994149 +0100,
cube_l.png,0.1,10,catch,19,19,0,down,5.3212547000002814,None,None,,,,,,,0,19,19,19,,,,,203.60035510000307,,,,,,,,,,,,,203.5860437999945,203.60035510000307,203.60035510000307,203.60035510000307,208.93021189999126,,,,208.94856170000276,208.95992310000292,208.95992310000292,208.99515449999308,208.99549610000395,209.01115569999092,209.01115569999092,209.01115569999092,209.09484779999184,212.0092047999933,,,,211.10927279999305,212.02483769999526,212.02483769999526,212.02483769999526,down,5.3212547000002814,None,None,,,,,,,,,,,,,,,,,P152,001,2025-04-11_14h06.16.315,posner_endo_new1,2024.2.4,59.98911797145087,2025-04-11 14h06.22.994149 +0100,
cube_l.png,0.1,0.31,invalid,20,20,0,down,1.8655360999982804,None,space,0.4338302999967709,None,,,,,0,20,20,20,,,,,212.02483769999526,,,,,,,,,,,,,212.009464200004,212.02483769999526,212.02483769999526,212.02483769999526,213.9075118000037,,,,213.91677640000125,213.926378499993,213.926378499993,213.9733195000008,213.97356050000235,213.98979659999895,213.98979659999895,213.98979659999895,214.07298709999304,214.44098939999822,,,,,,,,down,1.8655360999982804,None,space,0.4338302999967709,None,,,,,,,,,,,,,,,P152,001,2025-04-11_14h06.16.315,posner_endo_new1,2024.2.4,59.98911797145087,2025-04-11 14h06.22.994149 +0100,
cube_l.png,0.1,-0.31,valid,21,21,0,down,3.337291499992716,None,space,0.40970869999728166,None,,,,,0,21,21,21,,,,,214.45595269999467,,,,,,,,,,,,,214.44146419999015,214.45595269999467,214.45595269999467,214.45595269999467,217.80444579999312,,,,217.82257580000442,217.8340051999985,217.8340051999985,217.86939540000458,217.86993729999813,217.88572629999544,217.88572629999544,217.88572629999544,217.9690152999974,218.3040611000033,,,,,,,,down,3.337291499992716,None,space,0.40970869999728166,None,,,,,,,,,,,,,,,P152,001,2025-04-11_14h06.16.315,posner_endo_new1,2024.2.4,59.98911797145087,2025-04-11 14h06.22.994149 +0100,
cube_r.png,0.1,0.31,valid,22,22,0,down,3.4114839999965625,None,space,0.4039561999961734,None,,,,,0,22,22,22,,,,,218.3186560000031,,,,,,,,,,,,,218.3045293000032,218.3186560000031,218.3186560000031,218.3186560000031,221.73377869999968,,,,221.75206060000346,221.76350689999526,221.76350689999526,221.79860650000046,221.7991764000035,221.8150159999932,221.8150159999932,221.8150159999932,221.8982692999998,222.23316899999918,,,,,,,,down,3.4114839999965625,None,space,0.4039561999961734,None,,,,,,,,,,,,,,,P152,001,2025-04-11_14h06.16.315,posner_endo_new1,2024.2.4,59.98911797145087,2025-04-11 14h06.22.994149 +0100,
cube_r.png,0.1,-0.31,invalid,23,23,0,down,8.129694599992945,None,space,0.3306081000046106,None,,,,,0,23,23,23,,,,,222.24791679999908,,,,,,,,,,,,,222.23363170000084,222.24791679999908,222.24791679999908,222.24791679999908,230.39145309999003,,,,230.4096714000043,230.4210774999956,230.4210774999956,230.45583839999745,230.45612370000163,230.47286039999744,230.47286039999744,230.47286039999744,230.55606129999796,230.8081583000021,,,,,,,,down,8.129694599992945,None,space,0.3306081000046106,None,,,,,,,,,,,,,,,P152,001,2025-04-11_14h06.16.315,posner_endo_new1,2024.2.4,59.98911797145087,2025-04-11 14h06.22.994149 +0100,
cube_r.png,0.1,0.31,valid,24,24,0,down,6.451440199991339,None,space,0.3731772000028286,None,,,,,0,24,24,24,,,,,230.82251289999112,,,,,,,,,,,,,230.80862899999192,230.82251289999112,230.82251289999112,230.82251289999112,237.2845166999905,,,,237.3025964999979,237.31396040000254,237.31396040000254,237.3494117999944,237.34975379999378,237.3655277999933,237.3655277999933,237.3655277999933,237.4490064999991,237.74973329999193,,,,,,,,down,6.451440199991339,None,space,0.3731772000028286,None,,,,,,,,,,,,,,,P152,001,2025-04-11_14h06.16.315,posner_endo_new1,2024.2.4,59.98911797145087,2025-04-11 14h06.22.994149 +0100,
cube_r.png,0.1,-0.31,invalid,25,25,0,down,5.068582399995648,None,space,0.36444550000305753,None,,,,,0,25,25,25,,,,,237.7653946999926,,,,,,,,,,,,,237.75001730000076,237.7653946999926,237.7653946999926,237.7653946999926,242.84475699999894,,,,242.85619819999556,242.8664570999972,242.8664570999972,242.91016479999234,242.91050949999772,242.92649159999564,242.92649159999564,242.92649159999564,243.01014289999148,243.29437109999708,,,,,,,,down,5.068582399995648,None,space,0.36444550000305753,None,,,,,,,,,,,,,,,P152,001,2025-04-11_14h06.16.315,posner_endo_new1,2024.2.4,59.98911797145087,2025-04-11 14h06.22.994149 +0100,
cube_l.png,0.1,-0.31,valid,26,26,0,down,4.403927599996678,None,space,0.4013120000017807,None,,,,,0,26,26,26,,,,,243.309763199999,,,,,,,,,,,,,243.29465369999525,243.309763199999,243.309763199999,243.309763199999,247.7227697999915,,,,247.73415229999227,247.74438979999104,247.74438979999104,247.7884051000001,247.78875569999218,247.8052081999922,247.8052081999922,247.8052081999922,247.888074100003,248.22267659999488,,,,,,,,down,4.403927599996678,None,space,0.4013120000017807,None,,,,,,,,,,,,,,,P152,001,2025-04-11_14h06.16.315,posner_endo_new1,2024.2.4,59.98911797145087,2025-04-11 14h06.22.994149 +0100,
cube_r.png,0.1,0.31,valid,27,27,0,down,3.355952800004161,None,space,0.33370299999660347,None,,,,,0,27,27,27,,,,,248.23770389999845,,,,,,,,,,,,,248.22296149999602,248.23770389999845,248.23770389999845,248.23770389999845,251.6024097000045,,,,251.61365260000457,251.62405020000006,251.62405020000006,251.66811469999084,251.6684624000045,251.6842600999953,251.6842600999953,251.6842600999953,251.76758529999643,252.03535619999457,,,,,,,,down,3.355952800004161,None,space,0.33370299999660347,None,,,,,,,,,,,,,,,P152,001,2025-04-11_14h06.16.315,posner_endo_new1,2024.2.4,59.98911797145087,2025-04-11 14h06.22.994149 +0100,
cube_r.png,0.1,10,catch,28,28,0,down,2.5594846999883885,None,None,,,,,,,0,28,28,28,,,,,252.0505220999912,,,,,,,,,,,,,252.03564259999257,252.0505220999912,252.0505220999912,252.0505220999912,254.61620649999531,,,,254.62655839999206,254.63625850000244,254.63625850000244,254.68169209999905,254.68192580000323,254.69773179999902,254.69773179999902,254.69773179999902,254.7809610999975,257.69658229999186,,,,256.79611280000245,257.71186060000036,257.71186060000036,257.71186060000036,down,2.5594846999883885,None,None,,,,,,,,,,,,,,,,,P152,001,2025-04-11_14h06.16.315,posner_endo_new1,2024.2.4,59.98911797145087,2025-04-11 14h06.22.994149 +0100,
cube_r.png,0.1,0.31,valid,29,29,0,down,3.1374292000109563,None,space,0.39157340000383556,None,,,,,0,29,29,29,,,,,257.71186060000036,,,,,,,,,,,,,257.69710569999006,257.71186060000036,257.71186060000036,257.71186060000036,260.8614310999983,,,,260.8838670999976,260.8962662999984,260.8962662999984,260.9248101999983,260.92516220000107,260.9412785000022,260.9412785000022,260.9412785000022,261.0250109999906,261.3422148999962,,,,,,,,down,3.1374292000109563,None,space,0.39157340000383556,None,,,,,,,,,,,,,,,P152,001,2025-04-11_14h06.16.315,posner_endo_new1,2024.2.4,59.98911797145087,2025-04-11 14h06.22.994149 +0100,
cube_r.png,0.1,0.31,valid,30,30,0,down,3.2839313999866135,None,space,0.49491789999592584,None,,,,,0,30,30,30,,,,,261.35806640000374,,,,,,,,,,,,,261.3424998999981,261.35806640000374,261.35806640000374,261.35806640000374,264.6558210999938,,,,264.6669409000024,264.6771024000045,264.6771024000045,264.72144480000134,264.7217879999953,264.73792479999247,264.73792479999247,264.73792479999247,264.82087719999254,265.23816549999174,,,,,,,,down,3.2839313999866135,None,space,0.49491789999592584,None,,,,,,,,,,,,,,,P152,001,2025-04-11_14h06.16.315,posner_endo_new1,2024.2.4,59.98911797145087,2025-04-11 14h06.22.994149 +0100,
cube_l.png,0.1,-0.31,valid,31,31,0,down,3.2037912999949185,None,space,0.32917739999538753,None,,,,,0,31,31,31,,,,,265.2541143999988,,,,,,,,,,,,,265.23844960000133,265.2541143999988,265.2541143999988,265.2541143999988,268.4681738999934,,,,268.4794389000017,268.48965679999674,268.48965679999674,268.5340892999957,268.53443159999733,268.55049779999536,268.55049779999536,268.55049779999536,268.6338861999975,268.8845961000043,,,,,,,,down,3.2037912999949185,None,space,0.32917739999538753,None,,,,,,,,,,,,,,,P152,001,2025-04-11_14h06.16.315,posner_endo_new1,2024.2.4,59.98911797145087,2025-04-11 14h06.22.994149 +0100,
cube_r.png,0.1,0.31,valid,32,32,0,down,12.685847600005218,None,space,0.34824310000112746,None,,,,,0,32,32,32,,,,,268.90018349999445,,,,,,,,,,,,,268.884877199991,268.90018349999445,268.90018349999445,268.90018349999445,281.5884006999986,,,,281.5974591999984,281.60733400000026,281.60733400000026,281.65397790000134,281.6542163999984,281.67061839999224,281.67061839999224,281.67061839999224,281.7538288999931,282.0211428000039,,,,,,,,down,12.685847600005218,None,space,0.34824310000112746,None,,,,,,,,,,,,,,,P152,001,2025-04-11_14h06.16.315,posner_endo_new1,2024.2.4,59.98911797145087,2025-04-11 14h06.22.994149 +0100,
cube_r.png,0.1,-0.31,invalid,33,33,0,down,6.9019333999895025,None,space,0.4557160999975167,None,,,,,0,33,33,33,,,,,282.03632669999206,,,,,,,,,,,,,282.02132669999264,282.03632669999206,282.03632669999206,282.03632669999206,288.94900969999435,,,,288.9713577999937,288.9831196000014,288.9831196000014,289.012613400002,289.0129474999994,289.0291486999922,289.0291486999922,289.0291486999922,289.1128514000011,289.4970178999938,,,,,,,,down,6.9019333999895025,None,space,0.4557160999975167,None,,,,,,,,,,,,,,,P152,001,2025-04-11_14h06.16.315,posner_endo_new1,2024.2.4,59.98911797145087,2025-04-11 14h06.22.994149 +0100,
cube_r.png,0.1,10,catch,34,34,0,down,5.393521599995438,None,None,,,,,,,0,34,34,34,,,,,289.51215870000306,,,,,,,,,,,,,289.49728579999646,289.51215870000306,289.51215870000306,289.51215870000306,294.9078126999957,,,,294.9171459999925,294.92698589999054,294.92698589999054,294.9738531000039,294.9740923999925,294.9899136000022,294.9899136000022,294.9899136000022,295.05688940000255,297.98825110000325,,,,297.07142490000115,298.0037711999903,298.0037711999903,298.0037711999903,down,5.393521599995438,None,None,,,,,,,,,,,,,,,,,P152,001,2025-04-11_14h06.16.315,posner_endo_new1,2024.2.4,59.98911797145087,2025-04-11 14h06.22.994149 +0100,
cube_r.png,0.1,0.31,valid,35,35,0,down,1.7894918999954825,None,space,0.4397626999998465,None,,,,,0,35,35,35,,,,,298.0037711999903,,,,,,,,,,,,,297.9886889999907,298.0037711999903,298.0037711999903,298.0037711999903,299.8038680000027,,,,299.82195990000037,299.83336039999267,299.83336039999267,299.868386999995,299.8687360999902,299.8853325999953,299.8853325999953,299.8853325999953,299.96847490000073,300.3357668999961,,,,,,,,down,1.7894918999954825,None,space,0.4397626999998465,None,,,,,,,,,,,,,,,P152,001,2025-04-11_14h06.16.315,posner_endo_new1,2024.2.4,59.98911797145087,2025-04-11 14h06.22.994149 +0100,
cube_r.png,0.1,-0.31,invalid,36,36,0,down,3.2988736999977846,None,space,0.41992459999164566,None,,,,,0,36,36,36,,,,,300.35127620000276,,,,,,,,,,,,,300.3360539999994,300.35127620000276,300.35127620000276,300.35127620000276,303.66588259999116,,,,303.6763651999936,303.6859181000036,303.6859181000036,303.731575400001,303.73181679999107,303.74757720000343,303.74757720000343,303.74757720000343,303.83137030000216,304.18285379999725,,,,,,,,down,3.2988736999977846,None,space,0.41992459999164566,None,,,,,,,,,,,,,,,P152,001,2025-04-11_14h06.16.315,posner_endo_new1,2024.2.4,59.98911797145087,2025-04-11 14h06.22.994149 +0100,
cube_l.png,0.1,0.31,invalid,37,37,0,down,3.7976163999992423,None,space,0.30068120000942145,None,,,,,0,37,37,37,,,,,304.1974269999919,,,,,,,,,,,,,304.1833315999975,304.1974269999919,304.1974269999919,304.1974269999919,308.01133009999467,,,,308.0206468999968,308.0307307999901,308.0307307999901,308.077074300003,308.0773780000018,308.0934503000026,308.0934503000026,308.0934503000026,308.17672930000117,308.4109699999972,,,,,,,,down,3.7976163999992423,None,space,0.30068120000942145,None,,,,,,,,,,,,,,,P152,001,2025-04-11_14h06.16.315,posner_endo_new1,2024.2.4,59.98911797145087,2025-04-11 14h06.22.994149 +0100,
cube_l.png,0.1,0.31,invalid,38,38,0,down,3.055535100007546,None,space,0.4465014000015799,None,,,,,0,38,38,38,,,,,308.42632610000146,,,,,,,,,,,,,308.4112194999907,308.42632610000146,308.42632610000146,308.42632610000146,311.49107209999056,,,,311.5003724999988,311.5105249999906,311.5105249999906,311.55684859999747,311.55715219999547,311.57323429999815,311.57323429999815,311.57323429999815,311.6565977999999,312.0236137000029,,,,,,,,down,3.055535100007546,None,space,0.4465014000015799,None,,,,,,,,,,,,,,,P152,001,2025-04-11_14h06.16.315,posner_endo_new1,2024.2.4,59.98911797145087,2025-04-11 14h06.22.994149 +0100,
cube_r.png,0.1,0.31,valid,39,39,0,down,12.506149099994218,None,space,0.36809200000425335,None,,,,,0,39,39,39,,,,,312.0390527999989,,,,,,,,,,,,,312.0238740999921,312.0390527999989,312.0390527999989,312.0390527999989,324.56091749999905,,,,324.57031399999687,324.5805091999937,324.5805091999937,324.6263545999973,324.62666139999055,324.64290150000306,324.64290150000306,324.64290150000306,324.7262159999955,325.0269275000028,,,,,,,,down,12.506149099994218,None,space,0.36809200000425335,None,,,,,,,,,,,,,,,P152,001,2025-04-11_14h06.16.315,posner_endo_new1,2024.2.4,59.98911797145087,2025-04-11 14h06.22.994149 +0100,
cube_l.png,0.1,0.31,invalid,40,40,0,down,4.4311721999984,None,space,0.41154230000393,None,,,,,0,40,40,40,,,,,325.0428546000039,,,,,,,,,,,,,325.0271714999981,325.0428546000039,325.0428546000039,325.0428546000039,329.48940639999637,,,,329.4987526000041,329.5089183999953,329.5089183999953,329.555033800003,329.5553335000004,329.57117719999223,329.57117719999223,329.57117719999223,329.6547606999957,329.98850500000117,,,,,,,,down,4.4311721999984,None,space,0.41154230000393,None,,,,,,,,,,,,,,,P152,001,2025-04-11_14h06.16.315,posner_endo_new1,2024.2.4,59.98911797145087,2025-04-11 14h06.22.994149 +0100,
cube_l.png,0.1,10,catch,41,41,0,down,3.374192300005234,None,None,,,,,,,0,41,41,41,,,,,330.0043960999901,,,,,,,,,,,,,329.98875239999325,330.0043960999901,330.0043960999901,330.0043960999901,333.3849702000007,,,,333.3941560999956,333.40443850000156,333.40443850000156,333.45108349999646,333.4513947999949,333.4672531999968,333.4672531999968,333.4672531999968,333.5504679000005,336.46506989999034,,,,335.56500410000444,336.48081749999255,336.48081749999255,336.48081749999255,down,3.374192300005234,None,None,,,,,,,,,,,,,,,,,P152,001,2025-04-11_14h06.16.315,posner_endo_new1,2024.2.4,59.98911797145087,2025-04-11 14h06.22.994149 +0100,
cube_l.png,0.1,-0.31,valid,42,42,0,down,1.424705500001437,None,space,0.4415325000009034,None,,,,,0,42,42,42,,,,,336.48081749999255,,,,,,,,,,,,,336.4653041999991,336.48081749999255,336.48081749999255,336.48081749999255,337.91417309999815,,,,337.9235813999985,337.9339120999939,337.9339120999939,337.97938269999577,337.9796920999943,337.99584550000145,337.99584550000145,337.99584550000145,338.07913289999124,338.4464758999966,,,,,,,,down,1.424705500001437,None,space,0.4415325000009034,None,,,,,,,,,,,,,,,P152,001,2025-04-11_14h06.16.315,posner_endo_new1,2024.2.4,59.98911797145087,2025-04-11 14h06.22.994149 +0100,
cube_l.png,0.1,10,catch,43,43,0,down,2.5717905999918003,None,None,,,,,,,0,43,43,43,,,,,338.4620791999914,,,,,,,,,,,,,338.44671760000347,338.4620791999914,338.4620791999914,338.4620791999914,341.04399769999145,,,,341.05336959999113,341.06370879999304,341.06370879999304,341.10963049999555,341.1099372000026,341.1262372999918,341.1262372999918,341.1262372999918,341.20958339999197,344.1236787999951,,,,343.2239159000019,344.13963839999633,344.13963839999633,344.13963839999633,down,2.5717905999918003,None,None,,,,,,,,,,,,,,,,,P152,001,2025-04-11_14h06.16.315,posner_endo_new1,2024.2.4,59.98911797145087,2025-04-11 14h06.22.994149 +0100,
cube_l.png,0.1,0.31,invalid,44,44,0,down,1.1182413000060478,None,space,0.4655401000054553,None,,,,,0,44,44,44,,,,,344.13963839999633,,,,,,,,,,,,,344.12391840000055,344.13963839999633,344.13963839999633,344.13963839999633,345.273203299992,,,,345.28246400000353,345.2926735999936,345.2926735999936,345.3384941999975,345.3388016999961,345.35522669999045,345.35522669999045,345.35522669999045,345.4385123999964,345.8224920999928,,,,,,,,down,1.1182413000060478,None,space,0.4655401000054553,None,,,,,,,,,,,,,,,P152,001,2025-04-11_14h06.16.315,posner_endo_new1,2024.2.4,59.98911797145087,2025-04-11 14h06.22.994149 +0100,
cube_l.png,0.1,0.31,invalid,45,45,0,down,6.947311700001592,None,space,0.345270799996797,None,,,,,0,45,45,45,,,,,345.8380911999993,,,,,,,,,,,,,345.8227426999947,345.8380911999993,345.8380911999993,345.8380911999993,352.7985255999956,,,,352.80801369999244,352.81814390000363,352.81814390000363,352.86445809999714,352.86476219999895,352.8809125999978,352.8809125999978,352.8809125999978,352.94725529999414,353.2313465000043,,,,,,,,down,6.947311700001592,None,space,0.345270799996797,None,,,,,,,,,,,,,,,P152,001,2025-04-11_14h06.16.315,posner_endo_new1,2024.2.4,59.98911797145087,2025-04-11 14h06.22.994149 +0100,
cube_r.png,0.1,0.31,valid,46,46,0,down,6.402977799996734,None,space,0.32952539999678265,None,,,,,0,46,46,46,,,,,353.24695289999363,,,,,,,,,,,,,353.23159389999637,353.24695289999363,353.24695289999363,353.24695289999363,359.65839029999916,,,,359.6677318000002,359.67798459999904,359.67798459999904,359.72385559999384,359.724163699997,359.74031919999106,359.74031919999106,359.74031919999106,359.8237808999984,360.07451199999196,,,,,,,,down,6.402977799996734,None,space,0.32952539999678265,None,,,,,,,,,,,,,,,P152,001,2025-04-11_14h06.16.315,posner_endo_new1,2024.2.4,59.98911797145087,2025-04-11 14h06.22.994149 +0100,
cube_l.png,0.1,-0.31,valid,47,47,0,down,5.927703699999256,None,space,0.38604230000055395,None,,,,,0,47,47,47,,,,,360.09006989999034,,,,,,,,,,,,,360.0747521000012,360.09006989999034,360.09006989999034,360.09006989999034,366.018886299993,,,,366.02830969999195,366.03845769999316,366.03845769999316,366.08395349999773,366.0842696000036,366.10079840000253,366.10079840000253,366.10079840000253,366.1839067999972,366.50128660000337,,,,,,,,down,5.927703699999256,None,space,0.38604230000055395,None,,,,,,,,,,,,,,,P152,001,2025-04-11_14h06.16.315,posner_endo_new1,2024.2.4,59.98911797145087,2025-04-11 14h06.22.994149 +0100,
cube_r.png,0.1,-0.31,invalid,48,48,0,down,5.188851099999738,None,space,0.4047621000063373,None,,,,,0,48,48,48,,,,,366.516787799992,,,,,,,,,,,,,366.5015327000001,366.516787799992,366.516787799992,366.516787799992,371.71278899999743,,,,371.7221675000037,371.73230299999705,371.73230299999705,371.7781694000005,371.7784759999922,371.7946654999978,371.7946654999978,371.7946654999978,371.8782141999982,372.21222420000413,,,,,,,,down,5.188851099999738,None,space,0.4047621000063373,None,,,,,,,,,,,,,,,P152,001,2025-04-11_14h06.16.315,posner_endo_new1,2024.2.4,59.98911797145087,2025-04-11 14h06.22.994149 +0100,
cube_r.png,0.1,10,catch,49,49,0,down,5.069382100002258,None,None,,,,,,,0,49,49,49,,,,,372.2279019999987,,,,,,,,,,,,,372.2124702000001,372.2279019999987,372.2279019999987,372.2279019999987,377.306997599997,,,,377.31631510000443,377.32661109999754,377.32661109999754,377.37280589999864,377.3731071999937,377.3889708999923,377.3889708999923,377.3889708999923,377.4723159999994,380.38655850000214,,,,379.48677309999766,380.40243400000327,380.40243400000327,380.40243400000327,down,5.069382100002258,None,None,,,,,,,,,,,,,,,,,P152,001,2025-04-11_14h06.16.315,posner_endo_new1,2024.2.4,59.98911797145087,2025-04-11 14h06.22.994149 +0100,
cube_l.png,0.1,-0.31,valid,50,50,0,down,6.191844100001617,None,space,0.30058229999849573,None,,,,,0,50,50,50,,,,,380.40243400000327,,,,,,,,,,,,,380.3867823000037,380.40243400000327,380.40243400000327,380.40243400000327,386.5975698999973,,,,386.6069551999972,386.6170890999929,386.6170890999929,386.66289959999267,386.66320719999203,386.6794607999909,386.6794607999909,386.6794607999909,386.76294990000315,386.9966015999962,,,,,,,,down,6.191844100001617,None,space,0.30058229999849573,None,,,,,,,,,,,,,,,P152,001,2025-04-11_14h06.16.315,posner_endo_new1,2024.2.4,59.98911797145087,2025-04-11 14h06.22.994149 +0100,
cube_l.png,0.1,-0.31,valid,51,51,0,down,6.573327400008566,None,space,0.38327840001147706,None,,,,,0,51,51,51,,,,,387.01269760000287,,,,,,,,,,,,,386.99684549999074,387.01269760000287,387.01269760000287,387.01269760000287,393.59031129999494,,,,393.5997604000004,393.6098964999983,393.6098964999983,393.65569149999646,393.65599879999354,393.672493799997,393.672493799997,393.672493799997,393.75589000000036,394.0568162999989,,,,,,,,down,6.573327400008566,None,space,0.38327840001147706,None,,,,,,,,,,,,,,,P152,001,2025-04-11_14h06.16.315,posner_endo_new1,2024.2.4,59.98911797145087,2025-04-11 14h06.22.994149 +0100,
cube_r.png,0.1,-0.31,invalid,52,52,0,down,7.185561099991901,None,space,0.42077929999504704,None,,,,,0,52,52,52,,,,,394.0718487999984,,,,,,,,,,,,,394.05705789999047,394.0718487999984,394.0718487999984,394.0718487999984,401.2660160999949,,,,401.27537580000353,401.28573529999994,401.28573529999994,401.33161209999525,401.33191629999783,401.34775909999735,401.34775909999735,401.34775909999735,401.4313022999995,401.78172240000276,,,,,,,,down,7.185561099991901,None,space,0.42077929999504704,None,,,,,,,,,,,,,,,P152,001,2025-04-11_14h06.16.315,posner_endo_new1,2024.2.4,59.98911797145087,2025-04-11 14h06.22.994149 +0100,
cube_l.png,0.1,-0.31,valid,53,53,0,down,5.812385199998971,None,space,0.3307329000090249,None,,,,,0,53,53,53,,,,,401.7973281000013,,,,,,,,,,,,,401.7819625999982,401.7973281000013,401.7973281000013,401.7973281000013,407.6261262999906,,,,407.63552509999136,407.6456987999991,407.6456987999991,407.6917204999918,407.69203659999766,407.7078676999954,407.7078676999954,407.7078676999954,407.7915567000018,408.0424187000026,,,,,,,,down,5.812385199998971,None,space,0.3307329000090249,None,,,,,,,,,,,,,,,P152,001,2025-04-11_14h06.16.315,posner_endo_new1,2024.2.4,59.98911797145087,2025-04-11 14h06.22.994149 +0100,
cube_r.png,0.1,10,catch,54,54,0,down,10.143506600012188,None,None,,,,,,,0,54,54,54,,,,,408.0577340000018,,,,,,,,,,,,,408.04266910000297,408.0577340000018,408.0577340000018,408.0577340000018,418.21515770000406,,,,418.2244961999968,418.2347199999931,418.2347199999931,418.2806866000028,418.28099210000073,418.2975185999967,418.2975185999967,418.2975185999967,418.3803543999966,421.2946004999976,,,,420.39488300000085,421.31063969999377,421.31063969999377,421.31063969999377,down,10.143506600012188,None,None,,,,,,,,,,,,,,,,,P152,001,2025-04-11_14h06.16.315,posner_endo_new1,2024.2.4,59.98911797145087,2025-04-11 14h06.22.994149 +0100,
cube_l.png,0.1,0.31,invalid,55,55,0,down,1.834988600006909,None,space,0.4409849000076065,None,,,,,0,55,55,55,,,,,421.31063969999377,,,,,,,,,,,,,421.2948255999945,421.31063969999377,421.31063969999377,421.31063969999377,423.1602200999914,,,,423.16966030000185,423.17982479999773,423.17982479999773,423.2261926999927,423.226877699999,423.242579800004,423.242579800004,423.242579800004,423.3257838999998,423.6946312999935,,,,,,,,down,1.834988600006909,None,space,0.4409849000076065,None,,,,,,,,,,,,,,,P152,001,2025-04-11_14h06.16.315,posner_endo_new1,2024.2.4,59.98911797145087,2025-04-11 14h06.22.994149 +0100,
cube_l.png,0.1,-0.31,valid,56,56,0,down,7.8053549000032945,None,space,0.402965100001893,None,,,,,0,56,56,56,,,,,423.7089973999973,,,,,,,,,,,,,423.69521550000354,423.7089973999973,423.7089973999973,423.7089973999973,431.5200766999915,,,,431.53947869999683,431.5500106999971,431.5500106999971,431.5837084999948,431.5841483999975,431.60026279999875,431.60026279999875,431.60026279999875,431.68353500000376,432.01752300000226,,,,,,,,down,7.8053549000032945,None,space,0.402965100001893,None,,,,,,,,,,,,,,,P152,001,2025-04-11_14h06.16.315,posner_endo_new1,2024.2.4,59.98911797145087,2025-04-11 14h06.22.994149 +0100,
cube_r.png,0.1,0.31,valid,57,57,0,down,3.081948499995633,None,space,0.4524951999919722,None,,,,,0,57,57,57,,,,,432.0330388000002,,,,,,,,,,,,,432.017766799996,432.0330388000002,432.0330388000002,432.0330388000002,435.1311910999939,,,,435.14048000000184,435.1505654999928,435.1505654999928,435.19649849999405,435.1968018000043,435.21336589999555,435.21336589999555,435.21336589999555,435.2962673000002,435.6802903999924,,,,,,,,down,3.081948499995633,None,space,0.4524951999919722,None,,,,,,,,,,,,,,,P152,001,2025-04-11_14h06.16.315,posner_endo_new1,2024.2.4,59.98911797145087,2025-04-11 14h06.22.994149 +0100,
cube_r.png,0.1,-0.31,invalid,58,58,0,down,3.4575196000077995,None,space,0.37005179999687243,None,,,,,0,58,58,58,,,,,435.69604830000026,,,,,,,,,,,,,435.6805333999946,435.69604830000026,435.69604830000026,435.69604830000026,439.16026799999236,,,,439.16945839999244,439.17983300000196,439.17983300000196,439.2260787999985,439.22638229999575,439.2426692000008,439.2426692000008,439.2426692000008,439.32561309999437,439.6262629999983,,,,,,,,down,3.4575196000077995,None,space,0.37005179999687243,None,,,,,,,,,,,,,,,P152,001,2025-04-11_14h06.16.315,posner_endo_new1,2024.2.4,59.98911797145087,2025-04-11 14h06.22.994149 +0100,
cube_l.png,0.1,0.31,invalid,59,59,0,down,3.8247011999919778,None,space,0.3555533999897307,None,,,,,0,59,59,59,,,,,439.64191530000244,,,,,,,,,,,,,439.626503099993,439.64191530000244,439.64191530000244,439.64191530000244,443.47244630000205,,,,443.48174689999723,443.49187279999023,443.49187279999023,443.5387602999981,443.53943730000174,443.55509619999793,443.55509619999793,443.55509619999793,443.6216832999926,443.9238040999917,,,,,,,,down,3.8247011999919778,None,space,0.3555533999897307,None,,,,,,,,,,,,,,,P152,001,2025-04-11_14h06.16.315,posner_endo_new1,2024.2.4,59.98911797145087,2025-04-11 14h06.22.994149 +0100,
,,,,,,,,,,,,,,,,,,,,,,,,,,,,,,,,,,,,,,,,,,,,,,,,,,,,,,,,,,,,,,,,,,,,,443.9241755999974,443.94046319999325,443.94046319999325,503.9426253999991,506.95937339999364,space,63.00493670000287,None,,,,,,,P152,001,2025-04-11_14h06.16.315,posner_endo_new1,2024.2.4,59.98911797145087,2025-04-11 14h06.22.994149 +0100,
,,,,,,,,,,,,,,,,,,,,,,,,,,,,,,,,,,506.95953989999543,506.97348339999735,510.0680932999967,509.95510389999254,,,,,,,,,,,,,,,,,,,,,,,,,,,,,,,,,,,,,,,,,,,,,,P152,001,2025-04-11_14h06.16.315,posner_endo_new1,2024.2.4,59.98911797145087,2025-04-11 14h06.22.994149 +0100,
cube_l.png,0.1,10,catch,0,0,0,up,6.365221100000781,None,None,,,,,,,,,,,0,0,0,0,510.0680932999967,,,,,,,,,,,,,510.0599108000024,510.0680932999967,510.0680932999967,510.0680932999967,516.4478522999998,,,,516.4605157000042,516.4706091999979,516.4706091999979,516.5134776999912,516.5138696999929,516.529952500001,516.529952500001,516.529952500001,516.6130254000018,519.5276936000009,,,,518.6277253000007,519.5434769999993,519.5434769999993,519.5434769999993,,,,,,,,,,,,,,,up,6.365221100000781,None,None,,,P152,001,2025-04-11_14h06.16.315,posner_endo_new1,2024.2.4,59.98911797145087,2025-04-11 14h06.22.994149 +0100,
cube_l.png,0.1,10,catch,1,1,0,up,3.441971399995964,None,None,,,,,,,,,,,0,1,1,1,519.5434769999993,,,,,,,,,,,,,519.5279939000029,519.5434769999993,519.5434769999993,519.5434769999993,522.9914017999981,,,,522.9996650999965,523.0095738999953,523.0095738999953,523.057087299996,523.0576485999918,523.0734843999962,523.0734843999962,523.0734843999962,523.1567522999976,526.0714614000026,,,,525.1713448999944,526.0869915999938,526.0869915999938,526.0869915999938,,,,,,,,,,,,,,,up,3.441971399995964,None,None,,,P152,001,2025-04-11_14h06.16.315,posner_endo_new1,2024.2.4,59.98911797145087,2025-04-11 14h06.22.994149 +0100,
cube_l.png,0.1,0.31,invalid,2,2,0,up,2.682656200006022,None,space,0.3949921000021277,None,,,,,,,,,0,2,2,2,526.0869915999938,,,,,,,,,,,,,526.071901999996,526.0869915999938,526.0869915999938,526.0869915999938,528.7862672999909,,,,528.8047988000035,528.8156999999919,528.8156999999919,528.851050600002,528.8516137999977,528.8675230999943,528.8675230999943,528.8675230999943,528.9507659999945,529.2691197999957,,,,,,,,,,,,,,,,,,,,,,up,2.682656200006022,None,space,0.3949921000021277,None,P152,001,2025-04-11_14h06.16.315,posner_endo_new1,2024.2.4,59.98911797145087,2025-04-11 14h06.22.994149 +0100,
cube_l.png,0.1,0.31,invalid,3,3,0,up,4.845462700002827,None,space,0.2958708999940427,None,,,,,,,,,0,3,3,3,529.2837355999945,,,,,,,,,,,,,529.2696050999948,529.2837355999945,529.2837355999945,529.2837355999945,534.1310994999949,,,,534.149227899994,534.1607956999942,534.1607956999942,534.1955691000039,534.1958728000027,534.2121442999924,534.2121442999924,534.2121442999924,534.2953149999958,534.512633899998,,,,,,,,,,,,,,,,,,,,,,up,4.845462700002827,None,space,0.2958708999940427,None,P152,001,2025-04-11_14h06.16.315,posner_endo_new1,2024.2.4,59.98911797145087,2025-04-11 14h06.22.994149 +0100,
cube_l.png,0.1,-0.31,valid,4,4,0,up,4.681585199999972,None,space,0.42500119999749586,None,,,,,,,,,0,4,4,4,534.5284017999948,,,,,,,,,,,,,534.512882199997,534.5284017999948,534.5284017999948,534.5284017999948,539.2246623999963,,,,539.2340166999929,539.2443207000033,539.2443207000033,539.2903784999944,539.2906816000032,539.306826400003,539.306826400003,539.306826400003,539.389765400003,539.7406171000039,,,,,,,,,,,,,,,,,,,,,,up,4.681585199999972,None,space,0.42500119999749586,None,P152,001,2025-04-11_14h06.16.315,posner_endo_new1,2024.2.4,59.98911797145087,2025-04-11 14h06.22.994149 +0100,
cube_r.png,0.1,-0.31,invalid,5,5,0,up,4.340821200006758,None,space,0.3990198999963468,None,,,,,,,,,0,5,5,5,539.7563952999917,,,,,,,,,,,,,539.7408712000033,539.7563952999917,539.7563952999917,539.7563952999917,544.1029251,,,,544.1122381000023,544.1225603999919,544.1225603999919,544.1683806999936,544.1686836000008,544.1849220000004,544.1849220000004,544.1849220000004,544.2681403000024,544.5858703999984,,,,,,,,,,,,,,,,,,,,,,up,4.340821200006758,None,space,0.3990198999963468,None,P152,001,2025-04-11_14h06.16.315,posner_endo_new1,2024.2.4,59.98911797145087,2025-04-11 14h06.22.994149 +0100,
cube_r.png,0.1,0.31,valid,6,6,0,up,5.472646000009263,None,space,0.34710070000437554,None,,,,,,,,,0,6,6,6,544.6011606999964,,,,,,,,,,,,,544.5861185999966,544.6011606999964,544.6011606999964,544.6011606999964,550.0822692999936,,,,550.1009174999926,550.111424799994,550.111424799994,550.1457567000034,550.1461864000012,550.1623099999997,550.1623099999997,550.1623099999997,550.2454252000025,550.5133128000016,,,,,,,,,,,,,,,,,,,,,,up,5.472646000009263,None,space,0.34710070000437554,None,P152,001,2025-04-11_14h06.16.315,posner_endo_new1,2024.2.4,59.98911797145087,2025-04-11 14h06.22.994149 +0100,
cube_r.png,0.1,-0.31,invalid,7,7,0,up,6.56894640000246,None,space,0.3890565999899991,None,,,,,,,,,0,7,7,7,550.5287416999927,,,,,,,,,,,,,550.5135671000025,550.5287416999927,550.5287416999927,550.5287416999927,557.1063828000042,,,,557.115424699994,557.1250762999989,557.1250762999989,557.1722059000022,557.172433300002,557.1881863000017,557.1881863000017,557.1881863000017,557.272008400003,557.5887913000042,,,,,,,,,,,,,,,,,,,,,,up,6.56894640000246,None,space,0.3890565999899991,None,P152,001,2025-04-11_14h06.16.315,posner_endo_new1,2024.2.4,59.98911797145087,2025-04-11 14h06.22.994149 +0100,
cube_l.png,0.1,-0.31,valid,8,8,0,up,7.548850100007257,None,space,0.37270590000844095,None,,,,,,,,,0,8,8,8,557.6050506000029,,,,,,,,,,,,,557.5889617999928,557.6050506000029,557.6050506000029,557.6050506000029,565.1662598999974,,,,565.1872017999995,565.1977228000032,565.1977228000032,565.2303403999977,565.2307809999911,565.2468274999992,565.2468274999992,565.2468274999992,565.3299709999992,565.6306502999942,,,,,,,,,,,,,,,,,,,,,,up,7.548850100007257,None,space,0.37270590000844095,None,P152,001,2025-04-11_14h06.16.315,posner_endo_new1,2024.2.4,59.98911797145087,2025-04-11 14h06.22.994149 +0100,
cube_r.png,0.1,-0.31,invalid,9,9,0,up,8.347130499998457,None,space,0.36845999999786727,None,,,,,,,,,0,9,9,9,565.6462685000006,,,,,,,,,,,,,565.6309015000006,565.6462685000006,565.6462685000006,565.6462685000006,574.0054328999977,,,,574.0147163999936,574.0249875000009,574.0249875000009,574.0714622999949,574.0717651000014,574.0877839000023,574.0877839000023,574.0877839000023,574.1709641999914,574.4719799000013,,,,,,,,,,,,,,,,,,,,,,up,8.347130499998457,None,space,0.36845999999786727,None,P152,001,2025-04-11_14h06.16.315,posner_endo_new1,2024.2.4,59.98911797145087,2025-04-11 14h06.22.994149 +0100,
cube_l.png,0.1,0.31,invalid,10,10,0,up,3.5625716999929864,None,space,0.37166249999427237,None,,,,,,,,,0,10,10,10,574.4872459000035,,,,,,,,,,,,,574.4722523999953,574.4872459000035,574.4872459000035,574.4872459000035,578.0519035000034,,,,578.0612903000001,578.0714387000044,578.0714387000044,578.1176538,578.1183378999995,578.1340172999917,578.1340172999917,578.1340172999917,578.2172753999912,578.5194685000024,,,,,,,,,,,,,,,,,,,,,,up,3.5625716999929864,None,space,0.37166249999427237,None,P152,001,2025-04-11_14h06.16.315,posner_endo_new1,2024.2.4,59.98911797145087,2025-04-11 14h06.22.994149 +0100,
cube_r.png,0.1,-0.31,invalid,11,11,0,up,8.068246999988332,None,space,0.2995943999994779,None,,,,,,,,,0,11,11,11,578.5337497,,,,,,,,,,,,,578.5200499999919,578.5337497,578.5337497,578.5337497,586.6095380999905,,,,586.6192542999925,586.6294221999997,586.6294221999997,586.6754938999948,586.6757991999912,586.6914044000005,586.6914044000005,586.6914044000005,586.7746655999945,586.992293999996,,,,,,,,,,,,,,,,,,,,,,up,8.068246999988332,None,space,0.2995943999994779,None,P152,001,2025-04-11_14h06.16.315,posner_endo_new1,2024.2.4,59.98911797145087,2025-04-11 14h06.22.994149 +0100,
cube_r.png,0.1,0.31,valid,12,12,0,up,9.03348709999409,None,space,0.3844513000076404,None,,,,,,,,,0,12,12,12,587.0078046999988,,,,,,,,,,,,,586.9925438999926,587.0078046999988,587.0078046999988,587.0078046999988,596.0515859000006,,,,596.0738277999917,596.0860336000042,596.0860336000042,596.1151568999921,596.1154835999914,596.1316267999937,596.1316267999937,596.1316267999937,596.2153785999981,596.5324468000035,,,,,,,,,,,,,,,,,,,,,,up,9.03348709999409,None,space,0.3844513000076404,None,P152,001,2025-04-11_14h06.16.315,posner_endo_new1,2024.2.4,59.98911797145087,2025-04-11 14h06.22.994149 +0100,
cube_l.png,0.1,10,catch,13,13,0,up,7.069442199994228,None,None,,,,,,,,,,,0,13,13,13,596.5485000000044,,,,,,,,,,,,,596.5327189999953,596.5485000000044,596.5485000000044,596.5485000000044,603.6252280000044,,,,603.6360176000017,603.6462484999938,603.6462484999938,603.690777900003,603.6911110999936,603.7076729999972,603.7076729999972,603.7076729999972,603.7740229999908,606.7052702999936,,,,605.7885019999958,606.7210477000044,606.7210477000044,606.7210477000044,,,,,,,,,,,,,,,up,7.069442199994228,None,None,,,P152,001,2025-04-11_14h06.16.315,posner_endo_new1,2024.2.4,59.98911797145087,2025-04-11 14h06.22.994149 +0100,
cube_r.png,0.1,-0.31,invalid,14,14,0,up,3.320175899993046,None,space,0.44186079999781214,None,,,,,,,,,0,14,14,14,606.7210477000044,,,,,,,,,,,,,606.7056254999916,606.7210477000044,606.7210477000044,606.7210477000044,610.0521911999967,,,,610.0616462000035,610.0719048000028,610.0719048000028,610.117645899998,610.1179477999976,610.1340608000028,610.1340608000028,610.1340608000028,610.2173636999942,610.5852350999921,,,,,,,,,,,,,,,,,,,,,,up,3.320175899993046,None,space,0.44186079999781214,None,P152,001,2025-04-11_14h06.16.315,posner_endo_new1,2024.2.4,59.98911797145087,2025-04-11 14h06.22.994149 +0100,
cube_l.png,0.1,-0.31,valid,15,15,0,up,7.4413581999979215,None,space,0.3645208999951137,None,,,,,,,,,0,15,15,15,610.6006330999953,,,,,,,,,,,,,610.5854841999972,610.6006330999953,610.6006330999953,610.6006330999953,618.0441319999954,,,,618.0538166000042,618.0637523000041,618.0637523000041,618.1097943999921,618.1101041999937,618.1262830999913,618.1262830999913,618.1262830999913,618.209169099995,618.4937159999972,,,,,,,,,,,,,,,,,,,,,,up,7.4413581999979215,None,space,0.3645208999951137,None,P152,001,2025-04-11_14h06.16.315,posner_endo_new1,2024.2.4,59.98911797145087,2025-04-11 14h06.22.994149 +0100,
cube_r.png,0.1,10,catch,16,16,0,up,7.724095199999283,None,None,,,,,,,,,,,0,16,16,16,618.509160799993,,,,,,,,,,,,,618.4939867999929,618.509160799993,618.509160799993,618.509160799993,626.2354285000038,,,,626.2448510999966,626.2549935999996,626.2549935999996,626.3013868999988,626.3016941999958,626.3178105999978,626.3178105999978,626.3178105999978,626.4009955999936,629.3150864999916,,,,628.4157364999992,629.3313619999972,629.3313619999972,629.3313619999972,,,,,,,,,,,,,,,up,7.724095199999283,None,None,,,P152,001,2025-04-11_14h06.16.315,posner_endo_new1,2024.2.4,59.98911797145087,2025-04-11 14h06.22.994149 +0100,
cube_r.png,0.1,10,catch,17,17,0,up,2.5666225000022678,None,None,,,,,,,,,,,0,17,17,17,629.3313619999972,,,,,,,,,,,,,629.3153168999997,629.3313619999972,629.3313619999972,629.3313619999972,631.9131630999909,,,,631.9228048999939,631.9330225000012,631.9330225000012,631.978921899994,631.979228199998,631.9953127999906,631.9953127999906,631.9953127999906,632.0786102999991,634.9928560999979,,,,634.092919200004,635.0086129999981,635.0086129999981,635.0086129999981,,,,,,,,,,,,,,,up,2.5666225000022678,None,None,,,P152,001,2025-04-11_14h06.16.315,posner_endo_new1,2024.2.4,59.98911797145087,2025-04-11 14h06.22.994149 +0100,
cube_l.png,0.1,0.31,invalid,18,18,0,up,2.528645799990045,None,space,0.9532245000009425,None,,,,,,,,,0,18,18,18,635.0086129999981,,,,,,,,,,,,,634.9930913999997,635.0086129999981,635.0086129999981,635.0086129999981,637.5406116999948,,,,637.5531496999902,637.5631714999909,637.5631714999909,637.6062076999951,637.6065939999971,637.6225336999923,637.6225336999923,637.6225336999923,637.7059493999986,638.5896206000034,,,,,,,,,,,,,,,,,,,,,,up,2.528645799990045,None,space,0.9532245000009425,None,P152,001,2025-04-11_14h06.16.315,posner_endo_new1,2024.2.4,59.98911797145087,2025-04-11 14h06.22.994149 +0100,
cube_l.png,0.1,10,catch,19,19,0,up,4.6690042999980506,None,None,,,,,,,,,,,0,19,19,19,638.6048750999907,,,,,,,,,,,,,638.5899415000022,638.6048750999907,638.6048750999907,638.6048750999907,643.2847793999972,,,,643.2972586999967,643.3077695999964,643.3077695999964,643.3505186999973,643.3507813000033,643.3667795999936,643.3667795999936,643.3667795999936,643.4503062000003,646.3642499999987,,,,645.4648119999911,646.3805376999953,646.3805376999953,646.3805376999953,,,,,,,,,,,,,,,up,4.6690042999980506,None,None,,,P152,001,2025-04-11_14h06.16.315,posner_endo_new1,2024.2.4,59.98911797145087,2025-04-11 14h06.22.994149 +0100,
cube_l.png,0.1,0.31,invalid,20,20,0,up,4.27691010000126,None,space,0.40468459999829065,None,,,,,,,,,0,20,20,20,646.3805376999953,,,,,,,,,,,,,646.3644411999994,646.3805376999953,646.3805376999953,646.3805376999953,650.6624989999982,,,,650.6846078999952,650.6948964999901,650.6948964999901,650.7258688000002,650.7262171999901,650.7423864000011,650.7423864000011,650.7423864000011,650.8261337000004,651.1600022999919,,,,,,,,,,,,,,,,,,,,,,up,4.27691010000126,None,space,0.40468459999829065,None,P152,001,2025-04-11_14h06.16.315,posner_endo_new1,2024.2.4,59.98911797145087,2025-04-11 14h06.22.994149 +0100,
cube_l.png,0.1,-0.31,valid,21,21,0,up,9.785613400003058,None,space,0.38041420000081416,None,,,,,,,,,0,21,21,21,651.175662499998,,,,,,,,,,,,,651.1602968999941,651.175662499998,651.175662499998,651.175662499998,660.966671599992,,,,660.9768413999991,660.9866058000043,660.9866058000043,661.032326200002,661.0325661999959,661.0489909000025,661.0489909000025,661.0489909000025,661.1321817999997,661.4324091000017,,,,,,,,,,,,,,,,,,,,,,up,9.785613400003058,None,space,0.38041420000081416,None,P152,001,2025-04-11_14h06.16.315,posner_endo_new1,2024.2.4,59.98911797145087,2025-04-11 14h06.22.994149 +0100,
cube_r.png,0.1,0.31,valid,22,22,0,up,3.0009992999985116,None,space,0.5861435999977402,None,,,,,,,,,0,22,22,22,661.4486092000006,,,,,,,,,,,,,661.4325903999998,661.4486092000006,661.4486092000006,661.4486092000006,664.4646517999936,,,,664.4858726999955,664.4959969999909,664.4959969999909,664.5285637999914,664.5289458000043,664.5450070999941,664.5450070999941,664.5450070999941,664.6283603999909,665.1457385999965,,,,,,,,,,,,,,,,,,,,,,up,3.0009992999985116,None,space,0.5861435999977402,None,P152,001,2025-04-11_14h06.16.315,posner_endo_new1,2024.2.4,59.98911797145087,2025-04-11 14h06.22.994149 +0100,
cube_r.png,0.1,-0.31,invalid,23,23,0,up,6.672241099993698,None,space,0.3053199999994831,None,,,,,,,,,0,23,23,23,665.1611683999945,,,,,,,,,,,,,665.1460686999926,665.1611683999945,665.1611683999945,665.1611683999945,671.8385785999999,,,,671.8467144000024,671.8576812999963,671.8576812999963,671.9047748000012,671.9053287999996,671.9212628999958,671.9212628999958,671.9212628999958,671.9877928999922,672.2394065999979,,,,,,,,,,,,,,,,,,,,,,up,6.672241099993698,None,space,0.3053199999994831,None,P152,001,2025-04-11_14h06.16.315,posner_endo_new1,2024.2.4,59.98911797145087,2025-04-11 14h06.22.994149 +0100,
cube_r.png,0.1,0.31,valid,24,24,0,up,4.835633700000471,None,space,0.35926369999651797,None,,,,,,,,,0,24,24,24,672.254162199999,,,,,,,,,,,,,672.2398977999983,672.254162199999,672.254162199999,672.254162199999,677.1010488000029,,,,677.1192443000036,677.1306265000021,677.1306265000021,677.1660040999996,677.1665448999993,677.1824389999965,677.1824389999965,677.1824389999965,677.2656354999926,677.5508154999989,,,,,,,,,,,,,,,,,,,,,,up,4.835633700000471,None,space,0.35926369999651797,None,P152,001,2025-04-11_14h06.16.315,posner_endo_new1,2024.2.4,59.98911797145087,2025-04-11 14h06.22.994149 +0100,
cube_r.png,0.1,-0.31,invalid,25,25,0,up,3.4044005000032485,None,space,0.35796080000000075,None,,,,,,,,,0,25,25,25,677.5653440000024,,,,,,,,,,,,,677.5512945999944,677.5653440000024,677.5653440000024,677.5653440000024,680.9804574000009,,,,680.9984385999996,681.0097602000023,681.0097602000023,681.0448875000002,681.0452165000024,681.0616528999963,681.0616528999963,681.0616528999963,681.1450777999999,681.4289471999946,,,,,,,,,,,,,,,,,,,,,,up,3.4044005000032485,None,space,0.35796080000000075,None,P152,001,2025-04-11_14h06.16.315,posner_endo_new1,2024.2.4,59.98911797145087,2025-04-11 14h06.22.994149 +0100,
cube_l.png,0.1,-0.31,valid,26,26,0,up,4.013448400000925,None,space,0.36330850000376813,None,,,,,,,,,0,26,26,26,681.4447615999961,,,,,,,,,,,,,681.4292205999955,681.4447615999961,681.4447615999961,681.4447615999961,685.4750798000023,,,,685.4856812999933,685.4955568000005,685.4955568000005,685.5409193999949,685.5412461999949,685.5568690999935,685.5568690999935,685.5568690999935,685.6403700999945,685.9244053000002,,,,,,,,,,,,,,,,,,,,,,up,4.013448400000925,None,space,0.36330850000376813,None,P152,001,2025-04-11_14h06.16.315,posner_endo_new1,2024.2.4,59.98911797145087,2025-04-11 14h06.22.994149 +0100,
cube_r.png,0.1,0.31,valid,27,27,0,up,5.013312800001586,None,space,0.27104720000352245,None,,,,,,,,,0,27,27,27,685.9399091999949,,,,,,,,,,,,,685.9246818999964,685.9399091999949,685.9399091999949,685.9399091999949,690.9696145999915,,,,690.977988300001,690.9878833999974,690.9878833999974,691.0351961999986,691.0354339000041,691.0512054999999,691.0512054999999,691.0512054999999,691.1348694999906,691.3350173999934,,,,,,,,,,,,,,,,,,,,,,up,5.013312800001586,None,space,0.27104720000352245,None,P152,001,2025-04-11_14h06.16.315,posner_endo_new1,2024.2.4,59.98911797145087,2025-04-11 14h06.22.994149 +0100,
cube_r.png,0.1,10,catch,28,28,0,up,2.5621941999997944,None,None,,,,,,,,,,,0,28,28,28,691.3514377999963,,,,,,,,,,,,,691.3352006999921,691.3514377999963,691.3514377999963,691.3514377999963,693.9160627999954,,,,693.9227642999904,693.9343729999964,693.9343729999964,693.9820411999972,693.9825645999954,693.9985504999931,693.9985504999931,693.9985504999931,694.0817142000014,696.9959013999905,,,,696.0964881999971,697.0121591999923,697.0121591999923,697.0121591999923,,,,,,,,,,,,,,,up,2.5621941999997944,None,None,,,P152,001,2025-04-11_14h06.16.315,posner_endo_new1,2024.2.4,59.98911797145087,2025-04-11 14h06.22.994149 +0100,
cube_r.png,0.1,0.31,valid,29,29,0,up,7.781745200001751,None,space,0.3989294000057271,None,,,,,,,,,0,29,29,29,697.0121591999923,,,,,,,,,,,,,696.996183700001,697.0121591999923,697.0121591999923,697.0121591999923,704.8050737000012,,,,704.8164060999989,704.8267011999997,704.8267011999997,704.8710299999948,704.8712809999997,704.8875293000019,704.8875293000019,704.8875293000019,704.9536665999913,705.2874870999949,,,,,,,,,,,,,,,,,,,,,,up,7.781745200001751,None,space,0.3989294000057271,None,P152,001,2025-04-11_14h06.16.315,posner_endo_new1,2024.2.4,59.98911797145087,2025-04-11 14h06.22.994149 +0100,
cube_r.png,0.1,0.31,valid,30,30,0,up,4.074146300001303,None,space,0.3598146000003908,None,,,,,,,,,0,30,30,30,705.3034557999927,,,,,,,,,,,,,705.2876881999982,705.3034557999927,705.3034557999927,705.3034557999927,709.3839390999929,,,,709.3953604999988,709.4055764999939,709.4055764999939,709.4495425999921,709.4498900000035,709.4659409000014,709.4659409000014,709.4659409000014,709.5492628999928,709.8333473999955,,,,,,,,,,,,,,,,,,,,,,up,4.074146300001303,None,space,0.3598146000003908,None,P152,001,2025-04-11_14h06.16.315,posner_endo_new1,2024.2.4,59.98911797145087,2025-04-11 14h06.22.994149 +0100,
cube_l.png,0.1,-0.31,valid,31,31,0,up,3.064049200009322,None,space,0.34861000000091735,None,,,,,,,,,0,31,31,31,709.8490715999942,,,,,,,,,,,,,709.8336378999957,709.8490715999942,709.8490715999942,709.8490715999942,712.9300740000035,,,,712.938667800001,712.9486922999931,712.9486922999931,712.9958360000019,712.996375799994,713.0124146000016,713.0124146000016,713.0124146000016,713.0957087999996,713.3643991999998,,,,,,,,,,,,,,,,,,,,,,up,3.064049200009322,None,space,0.34861000000091735,None,P152,001,2025-04-11_14h06.16.315,posner_endo_new1,2024.2.4,59.98911797145087,2025-04-11 14h06.22.994149 +0100,
cube_r.png,0.1,0.31,valid,32,32,0,up,11.615288900007727,None,space,0.3354710999992676,None,,,,,,,,,0,32,32,32,713.3787471999967,,,,,,,,,,,,,713.3649091999978,713.3787471999967,713.3787471999967,713.3787471999967,725.0015218000044,,,,725.012699400002,725.0229111999943,725.0229111999943,725.0670327999978,725.0673764999956,725.0833469999925,725.0833469999925,725.0833469999925,725.166808199996,725.4339638999954,,,,,,,,,,,,,,,,,,,,,,up,11.615288900007727,None,space,0.3354710999992676,None,P152,001,2025-04-11_14h06.16.315,posner_endo_new1,2024.2.4,59.98911797145087,2025-04-11 14h06.22.994149 +0100,
cube_r.png,0.1,-0.31,invalid,33,33,0,up,7.368293599996832,None,space,0.3729648000007728,None,,,,,,,,,0,33,33,33,725.4496214999963,,,,,,,,,,,,,725.4342614999914,725.4496214999963,725.4496214999963,725.4496214999963,732.8268364999967,,,,732.8381148999906,732.8483988999942,732.8483988999942,732.8923049000005,732.8926495999913,732.9088706000039,732.9088706000039,732.9088706000039,732.9920886000036,733.2925729999988,,,,,,,,,,,,,,,,,,,,,,up,7.368293599996832,None,space,0.3729648000007728,None,P152,001,2025-04-11_14h06.16.315,posner_endo_new1,2024.2.4,59.98911797145087,2025-04-11 14h06.22.994149 +0100,
cube_r.png,0.1,10,catch,34,34,0,up,4.389348800003063,None,None,,,,,,,,,,,0,34,34,34,733.3084492999915,,,,,,,,,,,,,733.2928591999953,733.3084492999915,733.3084492999915,733.3084492999915,737.7049789000012,,,,737.7162623999902,737.7264549999963,737.7264549999963,737.7702715999912,737.7706168000004,737.7869981999975,737.7869981999975,737.7869981999975,737.8703054999933,740.784765999997,,,,739.8848577000026,740.800771299997,740.800771299997,740.800771299997,,,,,,,,,,,,,,,up,4.389348800003063,None,None,,,P152,001,2025-04-11_14h06.16.315,posner_endo_new1,2024.2.4,59.98911797145087,2025-04-11 14h06.22.994149 +0100,
cube_r.png,0.1,0.31,valid,35,35,0,up,1.5447961000027135,None,space,0.3630440999986604,None,,,,,,,,,0,35,35,35,740.800771299997,,,,,,,,,,,,,740.7850285000022,740.800771299997,740.800771299997,740.800771299997,742.3499638999929,,,,742.3612356999947,742.371613299998,742.371613299998,742.4159441999946,742.4162990999903,742.4323810999922,742.4323810999922,742.4323810999922,742.5156463000021,742.7998439999938,,,,,,,,,,,,,,,,,,,,,,up,1.5447961000027135,None,space,0.3630440999986604,None,P152,001,2025-04-11_14h06.16.315,posner_endo_new1,2024.2.4,59.98911797145087,2025-04-11 14h06.22.994149 +0100,
cube_r.png,0.1,-0.31,invalid,36,36,0,up,4.538700599994627,None,space,0.4565847999911057,None,,,,,,,,,0,36,36,36,742.814988099999,,,,,,,,,,,,,742.800141899992,742.814988099999,742.814988099999,742.814988099999,747.3618783999991,,,,747.3731032999931,747.3834472000017,747.3834472000017,747.4272785999929,747.4276205999922,747.4440608000004,747.4440608000004,747.4440608000004,747.5271229999926,747.9112218999944,,,,,,,,,,,,,,,,,,,,,,up,4.538700599994627,None,space,0.4565847999911057,None,P152,001,2025-04-11_14h06.16.315,posner_endo_new1,2024.2.4,59.98911797145087,2025-04-11 14h06.22.994149 +0100,
cube_l.png,0.1,0.31,invalid,37,37,0,up,3.4914273000031244,None,space,0.31002109999826644,None,,,,,,,,,0,37,37,37,747.926498899993,,,,,,,,,,,,,747.9115080999909,747.926498899993,747.926498899993,747.926498899993,751.4244305000029,,,,751.4358727999934,751.4458975000016,751.4458975000016,751.489871999991,751.4902194000024,751.5060513999924,751.5060513999924,751.5060513999924,751.5896718000004,751.8242625999992,,,,,,,,,,,,,,,,,,,,,,up,3.4914273000031244,None,space,0.31002109999826644,None,P152,001,2025-04-11_14h06.16.315,posner_endo_new1,2024.2.4,59.98911797145087,2025-04-11 14h06.22.994149 +0100,
cube_l.png,0.1,0.31,invalid,38,38,0,up,4.025959399994463,None,space,0.3311440999968909,None,,,,,,,,,0,38,38,38,751.8394082000013,,,,,,,,,,,,,751.8245516000025,751.8394082000013,751.8394082000013,751.8394082000013,755.8695191000006,,,,755.8766105999966,755.8881884000002,755.8881884000002,755.9353295000037,755.9355764999927,755.951787500002,755.951787500002,755.951787500002,756.0180091999937,756.2854360999918,,,,,,,,,,,,,,,,,,,,,,up,4.025959399994463,None,space,0.3311440999968909,None,P152,001,2025-04-11_14h06.16.315,posner_endo_new1,2024.2.4,59.98911797145087,2025-04-11 14h06.22.994149 +0100,
cube_r.png,0.1,0.31,valid,39,39,0,up,4.716623300002539,None,space,0.35471050000342075,None,,,,,,,,,0,39,39,39,756.3012065999937,,,,,,,,,,,,,756.2856355999975,756.3012065999937,756.3012065999937,756.3012065999937,761.0304878000024,,,,761.0375624000008,761.0493406000023,761.0493406000023,761.0967277000018,761.0972326999909,761.1131404999905,761.1131404999905,761.1131404999905,761.1797044999985,761.4812211999961,,,,,,,,,,,,,,,,,,,,,,up,4.716623300002539,None,space,0.35471050000342075,None,P152,001,2025-04-11_14h06.16.315,posner_endo_new1,2024.2.4,59.98911797145087,2025-04-11 14h06.22.994149 +0100,
cube_l.png,0.1,0.31,invalid,40,40,0,up,4.817353699996602,None,space,0.3367471999954432,None,,,,,,,,,0,40,40,40,761.4960585999943,,,,,,,,,,,,,761.481647099994,761.4960585999943,761.4960585999943,761.4960585999943,766.3254941999912,,,,766.3367931999965,766.3469729999924,766.3469729999924,766.3913064999942,766.3916509999981,766.407684699996,766.407684699996,766.407684699996,766.4910432000033,766.7585781999951,,,,,,,,,,,,,,,,,,,,,,up,4.817353699996602,None,space,0.3367471999954432,None,P152,001,2025-04-11_14h06.16.315,posner_endo_new1,2024.2.4,59.98911797145087,2025-04-11 14h06.22.994149 +0100,
cube_l.png,0.1,10,catch,41,41,0,up,6.9157984999910695,None,None,,,,,,,,,,,0,41,41,41,766.7740405999939,,,,,,,,,,,,,766.7588683999929,766.7740405999939,766.7740405999939,766.7740405999939,773.7015801999951,,,,773.7127701999998,773.7229627999914,773.7229627999914,773.7670594999945,773.7674138000002,773.7836689999967,773.7836689999967,773.7836689999967,773.8666106000019,776.7813739999983,,,,775.8811795999936,776.7973709999933,776.7973709999933,776.7973709999933,,,,,,,,,,,,,,,up,6.9157984999910695,None,None,,,P152,001,2025-04-11_14h06.16.315,posner_endo_new1,2024.2.4,59.98911797145087,2025-04-11 14h06.22.994149 +0100,
cube_l.png,0.1,-0.31,valid,42,42,0,up,2.4127020000014454,None,space,0.4702294000016991,None,,,,,,,,,0,42,42,42,776.7973709999933,,,,,,,,,,,,,776.7816499000037,776.7973709999933,776.7973709999933,776.7973709999933,779.2123618000041,,,,779.223605399995,779.2339271999954,779.2339271999954,779.2778061999998,779.2781548999919,779.2947282999958,779.2947282999958,779.2947282999958,779.3776767999952,779.7783815000003,,,,,,,,,,,,,,,,,,,,,,up,2.4127020000014454,None,space,0.4702294000016991,None,P152,001,2025-04-11_14h06.16.315,posner_endo_new1,2024.2.4,59.98911797145087,2025-04-11 14h06.22.994149 +0100,
cube_l.png,0.1,10,catch,43,43,0,up,3.655883699990227,None,None,,,,,,,,,,,0,43,43,43,779.794053199992,,,,,,,,,,,,,779.7786672999937,779.794053199992,779.794053199992,779.794053199992,783.4581227000017,,,,783.4673672999925,783.4772300999903,783.4772300999903,783.523325999995,783.5235729999986,783.5400895999919,783.5400895999919,783.5400895999919,783.6238729000033,786.5372686999908,,,,785.6382479000022,786.5535970999917,786.5535970999917,786.5535970999917,,,,,,,,,,,,,,,up,3.655883699990227,None,None,,,P152,001,2025-04-11_14h06.16.315,posner_endo_new1,2024.2.4,59.98911797145087,2025-04-11 14h06.22.994149 +0100,
cube_l.png,0.1,0.31,invalid,44,44,0,up,1.4403460000030464,None,space,0.35440889999154024,None,,,,,,,,,0,44,44,44,786.5535970999917,,,,,,,,,,,,,786.5374494999996,786.5535970999917,786.5535970999917,786.5535970999917,788.0027924000024,,,,788.0098792999925,788.0216325999936,788.0216325999936,788.0690897000022,788.0695869999909,788.085497299995,788.085497299995,788.085497299995,788.1521234999964,788.453570800004,,,,,,,,,,,,,,,,,,,,,,up,1.4403460000030464,None,space,0.35440889999154024,None,P152,001,2025-04-11_14h06.16.315,posner_endo_new1,2024.2.4,59.98911797145087,2025-04-11 14h06.22.994149 +0100,
cube_l.png,0.1,0.31,invalid,45,45,0,up,4.365151500009233,None,space,0.395772300005774,None,,,,,,,,,0,45,45,45,788.4684485000034,,,,,,,,,,,,,788.4540051999938,788.4684485000034,788.4684485000034,788.4684485000034,792.848668199993,,,,792.8580053000042,792.8677910999977,792.8677910999977,792.9144362999941,792.9151022000005,792.930938599995,792.930938599995,792.930938599995,793.0141762999992,793.3331652999914,,,,,,,,,,,,,,,,,,,,,,up,4.365151500009233,None,space,0.395772300005774,None,P152,001,2025-04-11_14h06.16.315,posner_endo_new1,2024.2.4,59.98911797145087,2025-04-11 14h06.22.994149 +0100,
cube_r.png,0.1,0.31,valid,46,46,0,up,2.197939800011227,None,space,0.3655041000019992,None,,,,,,,,,0,46,46,46,793.3473493999918,,,,,,,,,,,,,793.3337573000026,793.3473493999918,793.3473493999918,793.3473493999918,795.5476490000001,,,,795.5697067000001,795.5819568000006,795.5819568000006,795.6110211999912,795.6113696999964,795.6274950999941,795.6274950999941,795.6274950999941,795.7108802000002,795.9955843999924,,,,,,,,,,,,,,,,,,,,,,up,2.197939800011227,None,space,0.3655041000019992,None,P152,001,2025-04-11_14h06.16.315,posner_endo_new1,2024.2.4,59.98911797145087,2025-04-11 14h06.22.994149 +0100,
cube_l.png,0.1,-0.31,valid,47,47,0,up,3.8871489000011934,None,space,0.4216032999975141,None,,,,,,,,,0,47,47,47,796.0105707000039,,,,,,,,,,,,,795.9958671999921,796.0105707000039,796.0105707000039,796.0105707000039,799.9081970999978,,,,799.9192939999921,799.9296685000008,799.9296685000008,799.9737959999911,799.9741396000027,799.9899967999954,799.9899967999954,799.9899967999954,800.0733336999983,800.4238402999908,,,,,,,,,,,,,,,,,,,,,,up,3.8871489000011934,None,space,0.4216032999975141,None,P152,001,2025-04-11_14h06.16.315,posner_endo_new1,2024.2.4,59.98911797145087,2025-04-11 14h06.22.994149 +0100,
cube_r.png,0.1,-0.31,invalid,48,48,0,up,10.690285499993479,None,space,0.5480119999992894,None,,,,,,,,,0,48,48,48,800.4396830000042,,,,,,,,,,,,,800.4241438000026,800.4396830000042,800.4396830000042,800.4396830000042,811.1465914,,,,811.1567094999918,811.1664596999908,811.1664596999908,811.212245799994,811.2124911999999,811.2288859999971,811.2288859999971,811.2288859999971,811.3121291999996,811.7790089999908,,,,,,,,,,,,,,,,,,,,,,up,10.690285499993479,None,space,0.5480119999992894,None,P152,001,2025-04-11_14h06.16.315,posner_endo_new1,2024.2.4,59.98911797145087,2025-04-11 14h06.22.994149 +0100,
cube_r.png,0.1,10,catch,49,49,0,up,4.254416099996888,None,None,,,,,,,,,,,0,49,49,49,811.7949153999944,,,,,,,,,,,,,811.7791899000003,811.7949153999944,811.7949153999944,811.7949153999944,816.0596981999988,,,,816.0818887999922,816.0940923000016,816.0940923000016,816.1234792000032,816.1239099999948,816.1399498999963,816.1399498999963,816.1399498999963,816.2232188999915,819.1378988999932,,,,818.2381331999932,819.1538348000031,819.1538348000031,819.1538348000031,,,,,,,,,,,,,,,up,4.254416099996888,None,None,,,P152,001,2025-04-11_14h06.16.315,posner_endo_new1,2024.2.4,59.98911797145087,2025-04-11 14h06.22.994149 +0100,
cube_l.png,0.1,-0.31,valid,50,50,0,up,0.7680236000014702,None,space,0.4285958000109531,None,,,,,,,,,0,50,50,50,819.1538348000031,,,,,,,,,,,,,819.1381339999934,819.1538348000031,819.1538348000031,819.1538348000031,819.9375952999981,,,,819.9459746999928,819.955953800003,819.955953800003,820.0031245999999,820.0033595999994,820.019758399998,820.019758399998,820.019758399998,820.1031301999901,820.4552136999991,,,,,,,,,,,,,,,,,,,,,,up,0.7680236000014702,None,space,0.4285958000109531,None,P152,001,2025-04-11_14h06.16.315,posner_endo_new1,2024.2.4,59.98911797145087,2025-04-11 14h06.22.994149 +0100,
cube_l.png,0.1,-0.31,valid,51,51,0,up,6.6841502000024775,None,space,0.2862334999954328,None,,,,,,,,,0,51,51,51,820.4694917000015,,,,,,,,,,,,,820.4557888999989,820.4694917000015,820.4694917000015,820.4694917000015,827.1649608000007,,,,827.1871594999975,827.1994271000003,827.1994271000003,827.228783899991,827.2292171000008,827.2452901999932,827.2452901999932,827.2452901999932,827.3286926000001,827.546239999996,,,,,,,,,,,,,,,,,,,,,,up,6.6841502000024775,None,space,0.2862334999954328,None,P152,001,2025-04-11_14h06.16.315,posner_endo_new1,2024.2.4,59.98911797145087,2025-04-11 14h06.22.994149 +0100,
cube_r.png,0.1,-0.31,invalid,52,52,0,up,6.431754899997031,None,space,0.22724409999500494,None,,,,,,,,,0,52,52,52,827.561546500001,,,,,,,,,,,,,827.5464903999964,827.561546500001,827.561546500001,827.561546500001,834.0066020999948,,,,834.0157097999909,834.0254593999998,834.0254593999998,834.0720454999973,834.0722660000029,834.0885901000001,834.0885901000001,834.0885901000001,834.1717590000044,834.3224382999906,,,,,,,,,,,,,,,,,,,,,,up,6.431754899997031,None,space,0.22724409999500494,None,P152,001,2025-04-11_14h06.16.315,posner_endo_new1,2024.2.4,59.98911797145087,2025-04-11 14h06.22.994149 +0100,
cube_l.png,0.1,-0.31,valid,53,53,0,up,6.039252700007637,None,space,0.36927000001014676,None,,,,,,,,,0,53,53,53,834.338221500002,,,,,,,,,,,,,834.3226098000014,834.338221500002,834.338221500002,834.338221500002,840.3849263000011,,,,840.4060048999963,840.4161692999915,840.4161692999915,840.4485706999985,840.448959100002,840.4651016999997,840.4651016999997,840.4651016999997,840.5483532999933,840.8494254999969,,,,,,,,,,,,,,,,,,,,,,up,6.039252700007637,None,space,0.36927000001014676,None,P152,001,2025-04-11_14h06.16.315,posner_endo_new1,2024.2.4,59.98911797145087,2025-04-11 14h06.22.994149 +0100,
cube_r.png,0.1,10,catch,54,54,0,up,3.8894219000067096,None,None,,,,,,,,,,,0,54,54,54,840.8645811000024,,,,,,,,,,,,,840.8497455000033,840.8645811000024,840.8645811000024,840.8645811000024,844.7622499999998,,,,844.7744561,844.7845205999911,844.7845205999911,844.8277080999978,844.8279862999916,844.8440629999968,844.8440629999968,844.8440629999968,844.9274816999969,847.8427716000006,,,,846.9422976999922,847.8580986000015,847.8580986000015,847.8580986000015,,,,,,,,,,,,,,,up,3.8894219000067096,None,None,,,P152,001,2025-04-11_14h06.16.315,posner_endo_new1,2024.2.4,59.98911797145087,2025-04-11 14h06.22.994149 +0100,
cube_l.png,0.1,0.31,invalid,55,55,0,up,2.1117893000046024,None,space,0.47638130000268575,None,,,,,,,,,0,55,55,55,847.8580986000015,,,,,,,,,,,,,847.8433148999902,847.8580986000015,847.8580986000015,847.8580986000015,849.9750705999904,,,,849.9973284000007,850.0100600000005,850.0100600000005,850.0388144000026,850.0391172999953,850.0554302999954,850.0554302999954,850.0554302999954,850.138561300002,850.5411713999929,,,,,,,,,,,,,,,,,,,,,,up,2.1117893000046024,None,space,0.47638130000268575,None,P152,001,2025-04-11_14h06.16.315,posner_endo_new1,2024.2.4,59.98911797145087,2025-04-11 14h06.22.994149 +0100,
cube_l.png,0.1,-0.31,valid,56,56,0,up,3.221839599995292,None,space,0.42291280000063125,None,,,,,,,,,0,56,56,56,850.5554684999952,,,,,,,,,,,,,850.5417689000024,850.5554684999952,850.5554684999952,850.5554684999952,853.7876825999992,,,,853.8096689999948,853.8224876000022,853.8224876000022,853.8515759000002,853.8518815999996,853.8682703999948,853.8682703999948,853.8682703999948,853.951309600001,854.3039735999919,,,,,,,,,,,,,,,,,,,,,,up,3.221839599995292,None,space,0.42291280000063125,None,P152,001,2025-04-11_14h06.16.315,posner_endo_new1,2024.2.4,59.98911797145087,2025-04-11 14h06.22.994149 +0100,
cube_r.png,0.1,0.31,valid,57,57,0,up,14.707896400010213,None,space,0.35584399999061134,None,,,,,,,,,0,57,57,57,854.3182419999939,,,,,,,,,,,,,854.3045757999935,854.3182419999939,854.3182419999939,854.3182419999939,869.0387991000025,,,,869.0589173000044,869.0694192999945,869.0694192999945,869.1028153999941,869.1032529999939,869.1191182999901,869.1191182999901,869.1191182999901,869.2023422999919,869.4863987999997,,,,,,,,,,,,,,,,,,,,,,up,14.707896400010213,None,space,0.35584399999061134,None,P152,001,2025-04-11_14h06.16.315,posner_endo_new1,2024.2.4,59.98911797145087,2025-04-11 14h06.22.994149 +0100,
cube_r.png,0.1,-0.31,invalid,58,58,0,up,5.731609299997217,None,space,0.29038950000540353,None,,,,,,,,,0,58,58,58,869.5023769999971,,,,,,,,,,,,,869.4866501999932,869.5023769999971,869.5023769999971,869.5023769999971,875.2474914999912,,,,875.2568889999966,875.2672568999988,875.2672568999988,875.3129221999989,875.3132370999956,875.3296169999958,875.3296169999958,875.3296169999958,875.4130149999983,875.6301231999969,,,,,,,,,,,,,,,,,,,,,,up,5.731609299997217,None,space,0.29038950000540353,None,P152,001,2025-04-11_14h06.16.315,posner_endo_new1,2024.2.4,59.98911797145087,2025-04-11 14h06.22.994149 +0100,
cube_l.png,0.1,0.31,invalid,59,59,0,up,5.267924300002051,None,space,0.2882017000083579,None,,,,,,,,,0,59,59,59,875.6457738000026,,,,,,,,,,,,,875.6303731999942,875.6457738000026,875.6457738000026,875.6457738000026,880.9246912999952,,,,880.9338455999969,880.9453164000006,880.9453164000006,880.991142999992,880.9918368999934,881.0074958000041,881.0074958000041,881.0074958000041,881.0740761999914,881.3097431999922,,,,,,,,,,,,,,,,,,,,,,up,5.267924300002051,None,space,0.2882017000083579,None,P152,001,2025-04-11_14h06.16.315,posner_endo_new1,2024.2.4,59.98911797145087,2025-04-11 14h06.22.994149 +0100,
