cue_img,cue_soa,target_x,trial,thisN,thisTrialN,thisRepN,key_control2.keys,key_control2.rt,key_control2.duration,key_resp.keys,key_resp.rt,key_resp.duration,practice.thisRepN,practice.thisTrialN,practice.thisN,practice.thisIndex,block1.thisRepN,block1.thisTrialN,block1.thisN,block1.thisIndex,block2.thisRepN,block2.thisTrialN,block2.thisN,block2.thisIndex,thisRow.t,notes,instructions.started,instructions_txt.started,key_control.started,instructions.stopped,key_control.keys,key_control.rt,key_control.duration,ready.started,ready_txt.started,ready_txt.stopped,ready.stopped,fix.started,fixation.started,key_control2.started,fixation_cross.started,fix.stopped,practice.key_control2.keys,practice.key_control2.rt,practice.key_control2.duration,cue.started,cube.started,fixation_cross_cue.started,cue.stopped,target.started,fixation_target.started,fixation_cross_target.started,key_resp.started,star.started,target.stopped,practice.key_resp.keys,practice.key_resp.rt,practice.key_resp.duration,star.stopped,fixation_target.stopped,fixation_cross_target.stopped,key_resp.stopped,block1.key_control2.keys,block1.key_control2.rt,block1.key_control2.duration,block1.key_resp.keys,block1.key_resp.rt,block1.key_resp.duration,break_2.started,text.started,key_control3.started,text.stopped,break_2.stopped,key_control3.keys,key_control3.rt,key_control3.duration,block2.key_control2.keys,block2.key_control2.rt,block2.key_control2.duration,block2.key_resp.keys,block2.key_resp.rt,block2.key_resp.duration,participant,session,date,expName,psychopyVersion,frameRate,expStart,
,,,,,,,,,,,,,,,,,,,,,,,,,,,0.007411799990222789,0.023916499994811602,0.023916499994811602,2380.777401299987,up,2380.7410168999922,None,,,,,,,,,,,,,,,,,,,,,,,,,,,,,,,,,,,,,,,,,,,,,,,,,,P153,001,2025-04-11_14h22.11.999,posner_endo_new1,2024.2.4,60.13887268333119,2025-04-11 14h22.18.350387 +0100,
,,,,,,,,,,,,,,,,,,,,,,,,,,,,,,,,,,2380.7774800999905,2380.789287199994,2383.822932199997,2383.770132299993,,,,,,,,,,,,,,,,,,,,,,,,,,,,,,,,,,,,,,,,,,,,,,P153,001,2025-04-11_14h22.11.999,posner_endo_new1,2024.2.4,60.13887268333119,2025-04-11 14h22.18.350387 +0100,
cube_l.png,0.1,-0.31,valid,0,0,0,up,23.526020299992524,None,space,0.9469221000035759,None,0,0,0,8,,,,,,,,,2383.822932199997,,,,,,,,,,,,,2383.7992651999957,2383.822932199997,2383.822932199997,2383.822932199997,2407.3623073999916,up,23.526020299992524,None,2407.384776199993,2407.3972825999954,2407.3972825999954,2407.4273762999946,2407.427616599991,2407.443856099999,2407.443856099999,2407.443856099999,2407.5277736999997,2408.394439999989,space,0.9469221000035759,None,,,,,,,,,,,,,,,,,,,,,,,,,P153,001,2025-04-11_14h22.11.999,posner_endo_new1,2024.2.4,60.13887268333119,2025-04-11 14h22.18.350387 +0100,
cube_r.png,0.1,0.31,valid,1,1,0,up,4.867180700006429,None,space,0.37163439999858383,None,0,1,1,7,,,,,,,,,2408.410201299994,,,,,,,,,,,,,2408.394602799992,2408.410201299994,2408.410201299994,2408.410201299994,2413.291109599988,up,4.867180700006429,None,2413.313649799995,2413.3258923999965,2413.3258923999965,2413.3551436999987,2413.3555849999975,2413.371470699989,2413.371470699989,2413.371470699989,2413.4549105999904,2413.755881099991,space,0.37163439999858383,None,,,,,,,,,,,,,,,,,,,,,,,,,P153,001,2025-04-11_14h22.11.999,posner_endo_new1,2024.2.4,60.13887268333119,2025-04-11 14h22.18.350387 +0100,
cube_r.png,0.1,10,catch,2,2,0,up,2.769673100003274,None,None,,,0,2,2,3,,,,,,,,,2413.7710702999902,,,,,,,,,,,,,2413.7562363999896,2413.7710702999902,2413.7710702999902,2413.7710702999902,2416.5525669999915,up,2.769673100003274,None,2416.56181259999,2416.5720966999943,2416.5720966999943,2416.618631899997,2416.6189451999962,2416.634963599994,2416.634963599994,2416.634963599994,2416.7183922999975,2419.632302599988,None,,,2418.7327017999924,2419.648709099987,2419.648709099987,2419.648709099987,,,,,,,,,,,,,,,,,,,,,P153,001,2025-04-11_14h22.11.999,posner_endo_new1,2024.2.4,60.13887268333119,2025-04-11 14h22.18.350387 +0100,
cube_l.png,0.1,-0.31,valid,3,3,0,up,4.308175300000585,None,space,0.3024839999998221,None,0,3,3,4,,,,,,,,,2419.648709099987,,,,,,,,,,,,,2419.6325323999918,2419.648709099987,2419.648709099987,2419.648709099987,2423.961963199996,up,4.308175300000585,None,2423.971318799988,2423.981538799999,2423.981538799999,2424.0277770999965,2424.0280908999994,2424.044320199988,2424.044320199988,2424.044320199988,2424.1105974999955,2424.3612046999915,space,0.3024839999998221,None,,,,,,,,,,,,,,,,,,,,,,,,,P153,001,2025-04-11_14h22.11.999,posner_endo_new1,2024.2.4,60.13887268333119,2025-04-11 14h22.18.350387 +0100,
cube_r.png,0.1,-0.31,invalid,4,4,0,up,5.372179699988919,None,space,0.2880008999927668,None,0,4,4,6,,,,,,,,,2424.377230699989,,,,,,,,,,,,,2424.361441899993,2424.377230699989,2424.377230699989,2424.377230699989,2429.7560505,up,5.372179699988919,None,2429.7653016999975,2429.7754111999966,2429.7754111999966,2429.821891899992,2429.8222007999866,2429.8381901999965,2429.8381901999965,2429.8381901999965,2429.92170359999,2430.138613999996,space,0.2880008999927668,None,,,,,,,,,,,,,,,,,,,,,,,,,P153,001,2025-04-11_14h22.11.999,posner_endo_new1,2024.2.4,60.13887268333119,2025-04-11 14h22.18.350387 +0100,
cube_l.png,0.1,0.31,invalid,5,5,0,up,8.627106200001435,None,space,0.37211090000346303,None,0,5,5,1,,,,,,,,,2430.1544491999957,,,,,,,,,,,,,2430.138850699994,2430.1544491999957,2430.1544491999957,2430.1544491999957,2438.7968130999943,up,8.627106200001435,None,2438.8060509999923,2438.816228599986,2438.816228599986,2438.862879499997,2438.8635945999995,2438.879257499997,2438.879257499997,2438.879257499997,2438.9624866999948,2439.2644513999985,space,0.37211090000346303,None,,,,,,,,,,,,,,,,,,,,,,,,,P153,001,2025-04-11_14h22.11.999,posner_endo_new1,2024.2.4,60.13887268333119,2025-04-11 14h22.18.350387 +0100,
cube_l.png,0.1,0.31,invalid,6,6,0,up,7.957967100010137,None,space,0.3081949000043096,None,0,6,6,5,,,,,,,,,2439.278846999994,,,,,,,,,,,,,2439.265005899986,2439.278846999994,2439.278846999994,2439.278846999994,2447.2383693999873,up,7.957967100010137,None,2447.247615,2447.2577639999945,2447.2577639999945,2447.3035817999917,2447.3038960999984,2447.320509399986,2447.320509399986,2447.320509399986,2447.4034675000003,2447.6374432999874,space,0.3081949000043096,None,,,,,,,,,,,,,,,,,,,,,,,,,P153,001,2025-04-11_14h22.11.999,posner_endo_new1,2024.2.4,60.13887268333119,2025-04-11 14h22.18.350387 +0100,
cube_l.png,0.1,-0.31,valid,7,7,0,up,6.408062199989217,None,space,0.2979933000024175,None,0,7,7,0,,,,,,,,,2447.653428999998,,,,,,,,,,,,,2447.637685099995,2447.653428999998,2447.653428999998,2447.653428999998,2454.064671299988,up,6.408062199989217,None,2454.079789299998,2454.091907299997,2454.091907299997,2454.130001999991,2454.1304488999886,2454.14641809999,2454.14641809999,2454.14641809999,2454.2299736999994,2454.4474577999936,space,0.2979933000024175,None,,,,,,,,,,,,,,,,,,,,,,,,,P153,001,2025-04-11_14h22.11.999,posner_endo_new1,2024.2.4,60.13887268333119,2025-04-11 14h22.18.350387 +0100,
cube_r.png,0.1,0.31,valid,8,8,0,up,4.414120600005845,None,space,0.4594463999965228,None,0,8,8,10,,,,,,,,,2454.4627643999993,,,,,,,,,,,,,2454.4477018999896,2454.4627643999993,2454.4627643999993,2454.4627643999993,2458.8929154999933,up,4.414120600005845,None,2458.902181199999,2458.912283499987,2458.912283499987,2458.9589643999934,2458.9596313999937,2458.975322099999,2458.975322099999,2458.975322099999,2459.058591199995,2459.4441444999975,space,0.4594463999965228,None,,,,,,,,,,,,,,,,,,,,,,,,,P153,001,2025-04-11_14h22.11.999,posner_endo_new1,2024.2.4,60.13887268333119,2025-04-11 14h22.18.350387 +0100,
cube_r.png,0.1,-0.31,invalid,9,9,0,up,8.099560899994685,None,space,0.4779395000077784,None,0,9,9,9,,,,,,,,,2459.458219399996,,,,,,,,,,,,,2459.4447022999957,2459.458219399996,2459.458219399996,2459.458219399996,2467.568714599998,up,8.099560899994685,None,2467.5908112999896,2467.603319099988,2467.603319099988,2467.632664299992,2467.6330015999993,2467.6491299999907,2467.6491299999907,2467.6491299999907,2467.7327829999995,2468.1333147999976,space,0.4779395000077784,None,,,,,,,,,,,,,,,,,,,,,,,,,P153,001,2025-04-11_14h22.11.999,posner_endo_new1,2024.2.4,60.13887268333119,2025-04-11 14h22.18.350387 +0100,
cube_r.png,0.1,-0.31,invalid,10,10,0,up,6.464608299997053,None,space,0.5156287999998312,None,0,10,10,2,,,,,,,,,2468.149139699992,,,,,,,,,,,,,2468.1335752999876,2468.149139699992,2468.149139699992,2468.149139699992,2474.6265139999887,up,6.464608299997053,None,2474.6367992999876,2474.6472013999883,2474.6472013999883,2474.692473999996,2474.692812399997,2474.7089898999984,2474.7089898999984,2474.7089898999984,2474.7756580999994,2475.2262861999916,space,0.5156287999998312,None,,,,,,,,,,,,,,,,,,,,,,,,,P153,001,2025-04-11_14h22.11.999,posner_endo_new1,2024.2.4,60.13887268333119,2025-04-11 14h22.18.350387 +0100,
,,,,,,,,,,,,,,,,,,,,,,,,,,,,,,,,,,2475.2264571999985,2475.2419623999886,2478.2672093999863,2478.223495399987,,,,,,,,,,,,,,,,,,,,,,,,,,,,,,,,,,,,,,,,,,,,,,P153,001,2025-04-11_14h22.11.999,posner_endo_new1,2024.2.4,60.13887268333119,2025-04-11 14h22.18.350387 +0100,
cube_l.png,0.1,10,catch,0,0,0,up,9.298157400000491,None,None,,,,,,,0,0,0,0,,,,,2478.2672093999863,,,,,,,,,,,,,2478.258148299996,2478.2672093999863,2478.2672093999863,2478.2672093999863,2487.5817234999995,,,,2487.603817299998,2487.6155230999866,2487.6155230999866,2487.645465399997,2487.6458017999976,2487.6621461999894,2487.6621461999894,2487.6621461999894,2487.7457790999906,2490.6597287999903,,,,2489.7599144999986,2490.6759613999893,2490.6759613999893,2490.6759613999893,up,9.298157400000491,None,None,,,,,,,,,,,,,,,,,P153,001,2025-04-11_14h22.11.999,posner_endo_new1,2024.2.4,60.13887268333119,2025-04-11 14h22.18.350387 +0100,
cube_l.png,0.1,10,catch,1,1,0,up,3.2254838999942876,None,None,,,,,,,0,1,1,1,,,,,2490.6759613999893,,,,,,,,,,,,,2490.659982799989,2490.6759613999893,2490.6759613999893,2490.6759613999893,2493.906747099987,,,,2493.9169485999882,2493.9271855999978,2493.9271855999978,2493.972914999991,2493.9732537999953,2493.989012299993,2493.989012299993,2493.989012299993,2494.055502499992,2496.98691539999,,,,2496.070221599992,2497.0029398999905,2497.0029398999905,2497.0029398999905,up,3.2254838999942876,None,None,,,,,,,,,,,,,,,,,P153,001,2025-04-11_14h22.11.999,posner_endo_new1,2024.2.4,60.13887268333119,2025-04-11 14h22.18.350387 +0100,
cube_l.png,0.1,0.31,invalid,2,2,0,up,5.8579580999939935,None,space,0.4230173999967519,None,,,,,0,2,2,2,,,,,2497.0029398999905,,,,,,,,,,,,,2496.987171799992,2497.0029398999905,2497.0029398999905,2497.0029398999905,2502.8646024999907,,,,2502.875138999996,2502.8852718999988,2502.8852718999988,2502.9303599999985,2502.9306953999912,2502.9465452999866,2502.9465452999866,2502.9465452999866,2503.0301428999956,2503.380532899988,,,,,,,,up,5.8579580999939935,None,space,0.4230173999967519,None,,,,,,,,,,,,,,,P153,001,2025-04-11_14h22.11.999,posner_endo_new1,2024.2.4,60.13887268333119,2025-04-11 14h22.18.350387 +0100,
cube_l.png,0.1,0.31,invalid,3,3,0,up,7.648758499999531,None,space,0.3229649999993853,None,,,,,0,3,3,3,,,,,2503.396489299994,,,,,,,,,,,,,2503.380818699996,2503.396489299994,2503.396489299994,2503.396489299994,2511.056331899992,,,,2511.067070499994,2511.077255799988,2511.077255799988,2511.1217250999907,2511.1220594999904,2511.1383451999864,2511.1383451999864,2511.1383451999864,2511.221349299987,2511.472645499991,,,,,,,,up,7.648758499999531,None,space,0.3229649999993853,None,,,,,,,,,,,,,,,P153,001,2025-04-11_14h22.11.999,posner_endo_new1,2024.2.4,60.13887268333119,2025-04-11 14h22.18.350387 +0100,
cube_l.png,0.1,-0.31,valid,4,4,0,up,5.662365600001067,None,space,0.3164093999948818,None,,,,,0,4,4,4,,,,,2511.4879543999996,,,,,,,,,,,,,2511.4729160999996,2511.4879543999996,2511.4879543999996,2511.4879543999996,2517.166350799991,,,,2517.176531099991,2517.186887899996,2517.186887899996,2517.2323431999976,2517.2326743999874,2517.2486740999884,2517.2486740999884,2517.2486740999884,2517.331735899992,2517.5663032999873,,,,,,,,up,5.662365600001067,None,space,0.3164093999948818,None,,,,,,,,,,,,,,,P153,001,2025-04-11_14h22.11.999,posner_endo_new1,2024.2.4,60.13887268333119,2025-04-11 14h22.18.350387 +0100,
cube_r.png,0.1,-0.31,invalid,5,5,0,up,8.047958400013158,None,space,0.30753659999754746,None,,,,,0,5,5,5,,,,,2517.581614399998,,,,,,,,,,,,,2517.566575799996,2517.581614399998,2517.581614399998,2517.581614399998,2525.6409630999988,,,,2525.6508565999975,2525.660548,2525.660548,2525.7065611,2525.7067954999948,2525.7236152999976,2525.7236152999976,2525.7236152999976,2525.806892499997,2526.040621399996,,,,,,,,up,8.047958400013158,None,space,0.30753659999754746,None,,,,,,,,,,,,,,,P153,001,2025-04-11_14h22.11.999,posner_endo_new1,2024.2.4,60.13887268333119,2025-04-11 14h22.18.350387 +0100,
cube_r.png,0.1,0.31,valid,6,6,0,up,7.228392999997595,None,space,0.3087392000015825,None,,,,,0,6,6,6,,,,,2526.0565123999986,,,,,,,,,,,,,2526.0408013999986,2526.0565123999986,2526.0565123999986,2526.0565123999986,2533.3016594999935,,,,2533.3238924999896,2533.335975199996,2533.335975199996,2533.365320599987,2533.36564009999,2533.3817875999957,2533.3817875999957,2533.3817875999957,2533.4655110999884,2533.6997728999995,,,,,,,,up,7.228392999997595,None,space,0.3087392000015825,None,,,,,,,,,,,,,,,P153,001,2025-04-11_14h22.11.999,posner_endo_new1,2024.2.4,60.13887268333119,2025-04-11 14h22.18.350387 +0100,
cube_r.png,0.1,-0.31,invalid,7,7,0,up,6.849634400001378,None,space,0.1915785000019241,None,,,,,0,7,7,7,,,,,2533.715262599988,,,,,,,,,,,,,2533.7000244999945,2533.715262599988,2533.715262599988,2533.715262599988,2540.5760238999937,,,,2540.585280399988,2540.595456799987,2540.595456799987,2540.6412993999984,2540.6416188999865,2540.658326699995,2540.658326699995,2540.658326699995,2540.74112359999,2540.8586675999977,,,,,,,,up,6.849634400001378,None,space,0.1915785000019241,None,,,,,,,,,,,,,,,P153,001,2025-04-11_14h22.11.999,posner_endo_new1,2024.2.4,60.13887268333119,2025-04-11 14h22.18.350387 +0100,
cube_l.png,0.1,-0.31,valid,8,8,0,up,8.290649799993844,None,space,0.29120700000203215,None,,,,,0,8,8,8,,,,,2540.874303199991,,,,,,,,,,,,,2540.8589215999964,2540.874303199991,2540.874303199991,2540.874303199991,2549.1688776999945,,,,2549.190947799987,2549.2030815999897,2549.2030815999897,2549.2324827999983,2549.23282379999,2549.2493141999876,2549.2493141999876,2549.2493141999876,2549.332643899994,2549.550259399999,,,,,,,,up,8.290649799993844,None,space,0.29120700000203215,None,,,,,,,,,,,,,,,P153,001,2025-04-11_14h22.11.999,posner_endo_new1,2024.2.4,60.13887268333119,2025-04-11 14h22.18.350387 +0100,
cube_r.png,0.1,-0.31,invalid,9,9,0,up,6.575930599996354,None,space,0.44059709999419283,None,,,,,0,9,9,9,,,,,2549.5655889999907,,,,,,,,,,,,,2549.5505429999903,2549.5655889999907,2549.5655889999907,2549.5655889999907,2556.1436339999927,,,,2556.1543624999904,2556.164487099988,2556.164487099988,2556.2087082999933,2556.2090458999883,2556.225723299998,2556.225723299998,2556.225723299998,2556.3087992999936,2556.6764062,,,,,,,,up,6.575930599996354,None,space,0.44059709999419283,None,,,,,,,,,,,,,,,P153,001,2025-04-11_14h22.11.999,posner_endo_new1,2024.2.4,60.13887268333119,2025-04-11 14h22.18.350387 +0100,
cube_l.png,0.1,0.31,invalid,10,10,0,up,4.6336553000001,None,space,0.3816541000123834,None,,,,,0,10,10,10,,,,,2556.6913907999988,,,,,,,,,,,,,2556.6766800999903,2556.6913907999988,2556.6913907999988,2556.6913907999988,2561.33809759999,,,,2561.348398199989,2561.3585635999916,2561.3585635999916,2561.4037701999914,2561.40410829999,2561.4203935999976,2561.4203935999976,2561.4203935999976,2561.5035161999986,2561.8043510999996,,,,,,,,up,4.6336553000001,None,space,0.3816541000123834,None,,,,,,,,,,,,,,,P153,001,2025-04-11_14h22.11.999,posner_endo_new1,2024.2.4,60.13887268333119,2025-04-11 14h22.18.350387 +0100,
cube_r.png,0.1,-0.31,invalid,11,11,0,up,4.809125700005097,None,space,0.3483982999896398,None,,,,,0,11,11,11,,,,,2561.8199404999905,,,,,,,,,,,,,2561.804625699995,2561.8199404999905,2561.8199404999905,2561.8199404999905,2566.6326076999976,,,,2566.642854199992,2566.6531010999897,2566.6531010999897,2566.6985855999956,2566.6989171999885,2566.7145336999965,2566.7145336999965,2566.7145336999965,2566.7981097999873,2567.065891099992,,,,,,,,up,4.809125700005097,None,space,0.3483982999896398,None,,,,,,,,,,,,,,,P153,001,2025-04-11_14h22.11.999,posner_endo_new1,2024.2.4,60.13887268333119,2025-04-11 14h22.18.350387 +0100,
cube_r.png,0.1,0.31,valid,12,12,0,up,7.299619099998381,None,space,0.2983958000113489,None,,,,,0,12,12,12,,,,,2567.081287299996,,,,,,,,,,,,,2567.066162499992,2567.081287299996,2567.081287299996,2567.081287299996,2574.391044399992,,,,2574.4010295999906,2574.410752999989,2574.410752999989,2574.456950599997,2574.4571763999993,2574.4736777999933,2574.4736777999933,2574.4736777999933,2574.5401965999918,2574.7761314999952,,,,,,,,up,7.299619099998381,None,space,0.2983958000113489,None,,,,,,,,,,,,,,,P153,001,2025-04-11_14h22.11.999,posner_endo_new1,2024.2.4,60.13887268333119,2025-04-11 14h22.18.350387 +0100,
cube_l.png,0.1,10,catch,13,13,0,up,7.735031999996863,None,space,0.2925230999971973,None,,,,,0,13,13,13,,,,,2574.7901901999867,,,,,,,,,,,,,2574.776732699989,2574.7901901999867,2574.7901901999867,2574.7901901999867,2582.534783199997,,,,2582.5568738999864,2582.568341399994,2582.568341399994,2582.5983364999993,2582.598686799989,2582.615373599998,2582.615373599998,2582.615373599998,2582.6986140999943,2582.9163132999965,,,,,,,,up,7.735031999996863,None,space,0.2925230999971973,None,,,,,,,,,,,,,,,P153,001,2025-04-11_14h22.11.999,posner_endo_new1,2024.2.4,60.13887268333119,2025-04-11 14h22.18.350387 +0100,
cube_r.png,0.1,-0.31,invalid,14,14,0,up,7.569892400002573,None,space,0.34991119999904186,None,,,,,0,14,14,14,,,,,2582.931564899991,,,,,,,,,,,,,2582.9166001999984,2582.931564899991,2582.931564899991,2582.931564899991,2590.5083441999886,,,,2590.519563799986,2590.529754099989,2590.529754099989,2590.5736060999916,2590.5739575999905,2590.590504699998,2590.590504699998,2590.590504699998,2590.6738318999996,2590.957845699988,,,,,,,,up,7.569892400002573,None,space,0.34991119999904186,None,,,,,,,,,,,,,,,P153,001,2025-04-11_14h22.11.999,posner_endo_new1,2024.2.4,60.13887268333119,2025-04-11 14h22.18.350387 +0100,
cube_l.png,0.1,-0.31,valid,15,15,0,up,8.05608910000592,None,space,0.3280856000055792,None,,,,,0,15,15,15,,,,,2590.9731466999947,,,,,,,,,,,,,2590.9581340999866,2590.9731466999947,2590.9731466999947,2590.9731466999947,2599.0329798999883,,,,2599.0441554999998,2599.054397,2599.054397,2599.0982184999884,2599.0985684999905,2599.115103899996,2599.115103899996,2599.115103899996,2599.198286499988,2599.449121999991,,,,,,,,up,8.05608910000592,None,space,0.3280856000055792,None,,,,,,,,,,,,,,,P153,001,2025-04-11_14h22.11.999,posner_endo_new1,2024.2.4,60.13887268333119,2025-04-11 14h22.18.350387 +0100,
cube_r.png,0.1,10,catch,16,16,0,up,7.1166769999981625,None,None,,,,,,,0,16,16,16,,,,,2599.4647062999866,,,,,,,,,,,,,2599.4494145999925,2599.4647062999866,2599.4647062999866,2599.4647062999866,2606.591884499998,,,,2606.603158999991,2606.6133969999937,2606.6133969999937,2606.657324899992,2606.6575760999986,2606.6741346999916,2606.6741346999916,2606.6741346999916,2606.7574469999963,2609.6727103999874,,,,2608.7720579999877,2609.687780999986,2609.687780999986,2609.687780999986,up,7.1166769999981625,None,None,,,,,,,,,,,,,,,,,P153,001,2025-04-11_14h22.11.999,posner_endo_new1,2024.2.4,60.13887268333119,2025-04-11 14h22.18.350387 +0100,
cube_r.png,0.1,10,catch,17,17,0,up,4.73394289999851,None,None,,,,,,,0,17,17,17,,,,,2609.687780999986,,,,,,,,,,,,,2609.6732533999893,2609.687780999986,2609.687780999986,2609.687780999986,2614.4351814999973,,,,2614.4571749999886,2614.4693004,2614.4693004,2614.499234499992,2614.499684999988,2614.515651499998,2614.515651499998,2614.515651499998,2614.5989233,2617.513471299986,,,,2616.613870599991,2617.529619599998,2617.529619599998,2617.529619599998,up,4.73394289999851,None,None,,,,,,,,,,,,,,,,,P153,001,2025-04-11_14h22.11.999,posner_endo_new1,2024.2.4,60.13887268333119,2025-04-11 14h22.18.350387 +0100,
cube_l.png,0.1,0.31,invalid,18,18,0,up,6.508403500003624,None,space,0.37993500000447966,None,,,,,0,18,18,18,,,,,2617.529619599998,,,,,,,,,,,,,2617.5137030999904,2617.529619599998,2617.529619599998,2617.529619599998,2624.040353499993,,,,2624.049538899999,2624.0614258999994,2624.0614258999994,2624.106663399987,2624.107333199994,2624.123007999995,2624.123007999995,2624.123007999995,2624.189596899989,2624.508398699996,,,,,,,,up,6.508403500003624,None,space,0.37993500000447966,None,,,,,,,,,,,,,,,P153,001,2025-04-11_14h22.11.999,posner_endo_new1,2024.2.4,60.13887268333119,2025-04-11 14h22.18.350387 +0100,
cube_l.png,0.1,10,catch,19,19,0,up,6.7547448000113945,None,None,,,,,,,0,19,19,19,,,,,2624.522872699992,,,,,,,,,,,,,2624.509150699989,2624.522872699992,2624.522872699992,2624.522872699992,2631.284774899992,,,,2631.30697759999,2631.3186720999947,2631.3186720999947,2631.3484973999875,2631.3488620999997,2631.36493299999,2631.36493299999,2631.36493299999,2631.4488012999936,2634.3629224999895,,,,2633.4632252999872,2634.378876799994,2634.378876799994,2634.378876799994,up,6.7547448000113945,None,None,,,,,,,,,,,,,,,,,P153,001,2025-04-11_14h22.11.999,posner_endo_new1,2024.2.4,60.13887268333119,2025-04-11 14h22.18.350387 +0100,
cube_l.png,0.1,0.31,invalid,20,20,0,up,4.739671500006807,None,space,0.36013180000009015,None,,,,,0,20,20,20,,,,,2634.378876799994,,,,,,,,,,,,,2634.3631911999983,2634.378876799994,2634.378876799994,2634.378876799994,2639.125298999992,,,,2639.136649399996,2639.146921199994,2639.146921199994,2639.1905801999965,2639.190933399994,2639.2073929999897,2639.2073929999897,2639.2073929999897,2639.2906331999984,2639.575116199994,,,,,,,,up,4.739671500006807,None,space,0.36013180000009015,None,,,,,,,,,,,,,,,P153,001,2025-04-11_14h22.11.999,posner_endo_new1,2024.2.4,60.13887268333119,2025-04-11 14h22.18.350387 +0100,
cube_l.png,0.1,-0.31,valid,21,21,0,up,6.567164900014177,None,space,0.3877599999977974,None,,,,,0,21,21,21,,,,,2639.590259599994,,,,,,,,,,,,,2639.5754114999872,2639.590259599994,2639.590259599994,2639.590259599994,2646.167680899991,,,,2646.1788966999884,2646.1890308,2646.1890308,2646.2338759999984,2646.2342306999926,2646.2497841000004,2646.2497841000004,2646.2497841000004,2646.3164942000003,2646.6507727999997,,,,,,,,up,6.567164900014177,None,space,0.3877599999977974,None,,,,,,,,,,,,,,,P153,001,2025-04-11_14h22.11.999,posner_endo_new1,2024.2.4,60.13887268333119,2025-04-11 14h22.18.350387 +0100,
cube_r.png,0.1,0.31,valid,22,22,0,up,6.098510299998452,None,space,0.3167066999885719,None,,,,,0,22,22,22,,,,,2646.6665581999987,,,,,,,,,,,,,2646.6510717999918,2646.6665581999987,2646.6665581999987,2646.6665581999987,2652.779328699995,,,,2652.801416599992,2652.8137508999935,2652.8137508999935,2652.8433117999957,2652.8437515999976,2652.860262999995,2652.860262999995,2652.860262999995,2652.943539099986,2653.17961739999,,,,,,,,up,6.098510299998452,None,space,0.3167066999885719,None,,,,,,,,,,,,,,,P153,001,2025-04-11_14h22.11.999,posner_endo_new1,2024.2.4,60.13887268333119,2025-04-11 14h22.18.350387 +0100,
cube_r.png,0.1,-0.31,invalid,23,23,0,up,6.387737400000333,None,space,0.3466426999948453,None,,,,,0,23,23,23,,,,,2653.193447499987,,,,,,,,,,,,,2653.1802577999915,2653.193447499987,2653.193447499987,2653.193447499987,2659.5891437999962,,,,2659.6112207999977,2659.6235410999943,2659.6235410999943,2659.653008299996,2659.653397499991,2659.6693755999877,2659.6693755999877,2659.6693755999877,2659.7527230999985,2660.020428799995,,,,,,,,up,6.387737400000333,None,space,0.3466426999948453,None,,,,,,,,,,,,,,,P153,001,2025-04-11_14h22.11.999,posner_endo_new1,2024.2.4,60.13887268333119,2025-04-11 14h22.18.350387 +0100,
cube_r.png,0.1,0.31,valid,24,24,0,up,6.513655899994774,None,space,0.39998040000500623,None,,,,,0,24,24,24,,,,,2660.0356248999888,,,,,,,,,,,,,2660.020754099998,2660.0356248999888,2660.0356248999888,2660.0356248999888,2666.5635717999976,,,,2666.5760406999907,2666.5860568999924,2666.5860568999924,2666.6295403999975,2666.6298049999896,2666.646028999996,2666.646028999996,2666.646028999996,2666.7291963999887,2667.063346199997,,,,,,,,up,6.513655899994774,None,space,0.39998040000500623,None,,,,,,,,,,,,,,,P153,001,2025-04-11_14h22.11.999,posner_endo_new1,2024.2.4,60.13887268333119,2025-04-11 14h22.18.350387 +0100,
cube_r.png,0.1,-0.31,invalid,25,25,0,up,5.598314700007904,None,space,0.3851289999875007,None,,,,,0,25,25,25,,,,,2667.0789593999943,,,,,,,,,,,,,2667.0635826999933,2667.0789593999943,2667.0789593999943,2667.0789593999943,2672.692204699997,,,,2672.7126090999955,2672.7226846999984,2672.7226846999984,2672.75621159999,2672.7566017999925,2672.77276539999,2672.77276539999,2672.77276539999,2672.855861499993,2673.173498999997,,,,,,,,up,5.598314700007904,None,space,0.3851289999875007,None,,,,,,,,,,,,,,,P153,001,2025-04-11_14h22.11.999,posner_endo_new1,2024.2.4,60.13887268333119,2025-04-11 14h22.18.350387 +0100,
cube_l.png,0.1,-0.31,valid,26,26,0,up,7.664718600004562,None,space,0.28084779999335296,None,,,,,0,26,26,26,,,,,2673.188961199994,,,,,,,,,,,,,2673.1738291999936,2673.188961199994,2673.188961199994,2673.188961199994,2680.865680499992,,,,2680.8781243999983,2680.888119899988,2680.888119899988,2680.931104599993,2680.931509999995,2680.9476910999947,2680.9476910999947,2680.9476910999947,2681.0308197999984,2681.232098099994,,,,,,,,up,7.664718600004562,None,space,0.28084779999335296,None,,,,,,,,,,,,,,,P153,001,2025-04-11_14h22.11.999,posner_endo_new1,2024.2.4,60.13887268333119,2025-04-11 14h22.18.350387 +0100,
cube_r.png,0.1,0.31,valid,27,27,0,up,6.606115599992336,None,space,0.5335748000070453,None,,,,,0,27,27,27,,,,,2681.247270599997,,,,,,,,,,,,,2681.232423999987,2681.247270599997,2681.247270599997,2681.247270599997,2687.8584962999885,,,,2687.870916999993,2687.8809452999994,2687.8809452999994,2687.924044399988,2687.924440799994,2687.9404119999963,2687.9404119999963,2687.9404119999963,2688.023684899992,2688.49107969999,,,,,,,,up,6.606115599992336,None,space,0.5335748000070453,None,,,,,,,,,,,,,,,P153,001,2025-04-11_14h22.11.999,posner_endo_new1,2024.2.4,60.13887268333119,2025-04-11 14h22.18.350387 +0100,
cube_r.png,0.1,10,catch,28,28,0,up,6.507049299994833,None,None,,,,,,,0,28,28,28,,,,,2688.506561999995,,,,,,,,,,,,,2688.491408899994,2688.506561999995,2688.506561999995,2688.506561999995,2695.01800679999,,,,2695.030445499986,2695.0404895999964,2695.0404895999964,2695.0832752999995,2695.083677699993,2695.099747699991,2695.099747699991,2695.099747699991,2695.1830091999873,2698.0975027999957,,,,2697.1977161999966,2698.113477299994,2698.113477299994,2698.113477299994,up,6.507049299994833,None,None,,,,,,,,,,,,,,,,,P153,001,2025-04-11_14h22.11.999,posner_endo_new1,2024.2.4,60.13887268333119,2025-04-11 14h22.18.350387 +0100,
cube_r.png,0.1,0.31,valid,29,29,0,up,3.9958076000039,None,space,0.293501499996637,None,,,,,0,29,29,29,,,,,2698.113477299994,,,,,,,,,,,,,2698.0978101999935,2698.113477299994,2698.113477299994,2698.113477299994,2702.1108053999924,,,,2702.1232044999924,2702.133255199995,2702.133255199995,2702.1765260999964,2702.1767951999936,2702.1925779999874,2702.1925779999874,2702.1925779999874,2702.2763778999943,2702.4930674999923,,,,,,,,up,3.9958076000039,None,space,0.293501499996637,None,,,,,,,,,,,,,,,P153,001,2025-04-11_14h22.11.999,posner_endo_new1,2024.2.4,60.13887268333119,2025-04-11 14h22.18.350387 +0100,
cube_r.png,0.1,0.31,valid,30,30,0,up,16.144406100007473,None,space,0.3370483000035165,None,,,,,0,30,30,30,,,,,2702.509411699997,,,,,,,,,,,,,2702.4932757999923,2702.509411699997,2702.509411699997,2702.509411699997,2718.6620078999986,,,,2718.684049599993,2718.6964290999895,2718.6964290999895,2718.7257372999884,2718.7260858999944,2718.7427006999933,2718.7427006999933,2718.7427006999933,2718.8259285999957,2719.093487899998,,,,,,,,up,16.144406100007473,None,space,0.3370483000035165,None,,,,,,,,,,,,,,,P153,001,2025-04-11_14h22.11.999,posner_endo_new1,2024.2.4,60.13887268333119,2025-04-11 14h22.18.350387 +0100,
cube_l.png,0.1,-0.31,valid,31,31,0,up,8.032084099992062,None,space,0.3265742999938084,None,,,,,0,31,31,31,,,,,2719.1086784999934,,,,,,,,,,,,,2719.0937863,2719.1086784999934,2719.1086784999934,2719.1086784999934,2727.151917899988,,,,2727.162451199998,2727.172144899989,2727.172144899989,2727.2175890999933,2727.217843099992,2727.23359589999,2727.23359589999,2727.23359589999,2727.3172333999973,2727.568014599994,,,,,,,,up,8.032084099992062,None,space,0.3265742999938084,None,,,,,,,,,,,,,,,P153,001,2025-04-11_14h22.11.999,posner_endo_new1,2024.2.4,60.13887268333119,2025-04-11 14h22.18.350387 +0100,
cube_r.png,0.1,0.31,valid,32,32,0,up,8.885278999994625,None,space,0.40902040000946727,None,,,,,0,32,32,32,,,,,2727.583668099993,,,,,,,,,,,,,2727.568213099992,2727.583668099993,2727.583668099993,2727.583668099993,2736.477175699998,,,,2736.4994340999983,2736.5116273999884,2736.5116273999884,2736.5408891999978,2736.5412926999998,2736.557421099991,2736.557421099991,2736.557421099991,2736.640639099991,2736.9751400999958,,,,,,,,up,8.885278999994625,None,space,0.40902040000946727,None,,,,,,,,,,,,,,,P153,001,2025-04-11_14h22.11.999,posner_endo_new1,2024.2.4,60.13887268333119,2025-04-11 14h22.18.350387 +0100,
cube_r.png,0.1,-0.31,invalid,33,33,0,up,9.031107200004044,None,space,0.26185110000369605,None,,,,,0,33,33,33,,,,,2736.990269099988,,,,,,,,,,,,,2736.9754713999864,2736.990269099988,2736.990269099988,2736.990269099988,2746.0322330999916,,,,2746.044672799995,2746.0546938999905,2746.0546938999905,2746.0977136999863,2746.097979699989,2746.114577799992,2746.114577799992,2746.114577799992,2746.197969099987,2746.381671299998,,,,,,,,up,9.031107200004044,None,space,0.26185110000369605,None,,,,,,,,,,,,,,,P153,001,2025-04-11_14h22.11.999,posner_endo_new1,2024.2.4,60.13887268333119,2025-04-11 14h22.18.350387 +0100,
cube_r.png,0.1,10,catch,34,34,0,up,8.424075800008723,None,None,,,,,,,0,34,34,34,,,,,2746.3977129999985,,,,,,,,,,,,,2746.381883199996,2746.3977129999985,2746.3977129999985,2746.3977129999985,2754.8251119999913,,,,2754.84728229999,2754.8585273999925,2754.8585273999925,2754.8887442999985,2754.889092399986,2754.905331999995,2754.905331999995,2754.905331999995,2754.9889559999865,2757.9029932999983,,,,2757.0035037999914,2757.919258199996,2757.919258199996,2757.919258199996,up,8.424075800008723,None,None,,,,,,,,,,,,,,,,,P153,001,2025-04-11_14h22.11.999,posner_endo_new1,2024.2.4,60.13887268333119,2025-04-11 14h22.18.350387 +0100,
cube_r.png,0.1,0.31,valid,35,35,0,up,4.205475199996727,None,space,0.32774029999563936,None,,,,,0,35,35,35,,,,,2757.919258199996,,,,,,,,,,,,,2757.9032638999925,2757.919258199996,2757.919258199996,2757.919258199996,2762.132902399986,,,,2762.1428401999874,2762.152528099992,2762.152528099992,2762.1983514999883,2762.1986028999963,2762.2148717999953,2762.2148717999953,2762.2148717999953,2762.2981457999995,2762.548480799989,,,,,,,,up,4.205475199996727,None,space,0.32774029999563936,None,,,,,,,,,,,,,,,P153,001,2025-04-11_14h22.11.999,posner_endo_new1,2024.2.4,60.13887268333119,2025-04-11 14h22.18.350387 +0100,
cube_r.png,0.1,-0.31,invalid,36,36,0,up,8.2642826000083,None,space,0.35674760000256356,None,,,,,0,36,36,36,,,,,2762.564886799999,,,,,,,,,,,,,2762.5486791000003,2762.564886799999,2762.564886799999,2762.564886799999,2770.8418897999945,,,,2770.8640357999975,2770.876604399993,2770.876604399993,2770.9056248999987,2770.905974899986,2770.9221013999922,2770.9221013999922,2770.9221013999922,2771.005853399998,2771.28999189999,,,,,,,,up,8.2642826000083,None,space,0.35674760000256356,None,,,,,,,,,,,,,,,P153,001,2025-04-11_14h22.11.999,posner_endo_new1,2024.2.4,60.13887268333119,2025-04-11 14h22.18.350387 +0100,
cube_l.png,0.1,0.31,invalid,37,37,0,up,8.076119100005599,None,space,0.3422073000110686,None,,,,,0,37,37,37,,,,,2771.3054447999893,,,,,,,,,,,,,2771.2902780999866,2771.3054447999893,2771.3054447999893,2771.3054447999893,2779.398329799995,,,,2779.408794799994,2779.418656199996,2779.418656199996,2779.4640567999886,2779.4643892999884,2779.480195099997,2779.480195099997,2779.480195099997,2779.5639526999876,2779.8308685999946,,,,,,,,up,8.076119100005599,None,space,0.3422073000110686,None,,,,,,,,,,,,,,,P153,001,2025-04-11_14h22.11.999,posner_endo_new1,2024.2.4,60.13887268333119,2025-04-11 14h22.18.350387 +0100,
cube_l.png,0.1,0.31,invalid,38,38,0,up,7.262750800000504,None,space,0.2870606999931624,None,,,,,0,38,38,38,,,,,2779.846924499987,,,,,,,,,,,,,2779.8311381999956,2779.846924499987,2779.846924499987,2779.846924499987,2787.1234006999875,,,,2787.132339699994,2787.1421622999915,2787.1421622999915,2787.1894354999968,2787.1896736999915,2787.2059740999975,2787.2059740999975,2787.2059740999975,2787.272566799991,2787.5063735000003,,,,,,,,up,7.262750800000504,None,space,0.2870606999931624,None,,,,,,,,,,,,,,,P153,001,2025-04-11_14h22.11.999,posner_endo_new1,2024.2.4,60.13887268333119,2025-04-11 14h22.18.350387 +0100,
cube_r.png,0.1,0.31,valid,39,39,0,up,8.107253800000763,None,space,0.2000048999907449,None,,,,,0,39,39,39,,,,,2787.522439499997,,,,,,,,,,,,,2787.5065561999945,2787.522439499997,2787.522439499997,2787.522439499997,2795.633468199987,,,,2795.652996399993,2795.663158899988,2795.663158899988,2795.6970352999924,2795.6974281000003,2795.713564699996,2795.713564699996,2795.713564699996,2795.796840699986,2795.914870099994,,,,,,,,up,8.107253800000763,None,space,0.2000048999907449,None,,,,,,,,,,,,,,,P153,001,2025-04-11_14h22.11.999,posner_endo_new1,2024.2.4,60.13887268333119,2025-04-11 14h22.18.350387 +0100,
cube_l.png,0.1,0.31,invalid,40,40,0,up,9.427314599990495,None,space,0.3001304999925196,None,,,,,0,40,40,40,,,,,2795.9299518999906,,,,,,,,,,,,,2795.915191799999,2795.9299518999906,2795.9299518999906,2795.9299518999906,2805.3716201999923,,,,2805.384037099997,2805.3941376000002,2805.3941376000002,2805.4372138999897,2805.4374793999887,2805.453953899996,2805.453953899996,2805.453953899996,2805.5373622999905,2805.7564305999986,,,,,,,,up,9.427314599990495,None,space,0.3001304999925196,None,,,,,,,,,,,,,,,P153,001,2025-04-11_14h22.11.999,posner_endo_new1,2024.2.4,60.13887268333119,2025-04-11 14h22.18.350387 +0100,
cube_l.png,0.1,10,catch,41,41,0,up,9.25050189999456,None,None,,,,,,,0,41,41,41,,,,,2805.770592899993,,,,,,,,,,,,,2805.7570179999893,2805.770592899993,2805.770592899993,2805.770592899993,2815.0300881999865,,,,2815.0522824999935,2815.0646572999976,2815.0646572999976,2815.0937525999907,2815.0940682999935,2815.1103836999973,2815.1103836999973,2815.1103836999973,2815.1941370999994,2818.1084252,,,,2817.2083391999913,2818.1242902999948,2818.1242902999948,2818.1242902999948,up,9.25050189999456,None,None,,,,,,,,,,,,,,,,,P153,001,2025-04-11_14h22.11.999,posner_endo_new1,2024.2.4,60.13887268333119,2025-04-11 14h22.18.350387 +0100,
cube_l.png,0.1,-0.31,valid,42,42,0,up,4.552955800012569,None,space,0.35705190000589937,None,,,,,0,42,42,42,,,,,2818.1242902999948,,,,,,,,,,,,,2818.1086597999965,2818.1242902999948,2818.1242902999948,2818.1242902999948,2822.6890362999984,,,,2822.7108747999882,2822.7212261999957,2822.7212261999957,2822.7525909999968,2822.752941499988,2822.7690961999906,2822.7690961999906,2822.7690961999906,2822.852754199994,2823.1370456999866,,,,,,,,up,4.552955800012569,None,space,0.35705190000589937,None,,,,,,,,,,,,,,,P153,001,2025-04-11_14h22.11.999,posner_endo_new1,2024.2.4,60.13887268333119,2025-04-11 14h22.18.350387 +0100,
cube_l.png,0.1,10,catch,43,43,0,up,6.404825900011929,None,None,,,,,,,0,43,43,43,,,,,2823.1525601999892,,,,,,,,,,,,,2823.1373337999976,2823.1525601999892,2823.1525601999892,2823.1525601999892,2829.5634789999895,,,,2829.5748255999933,2829.585148299986,2829.585148299986,2829.629276199994,2829.6296306999866,2829.645882099998,2829.645882099998,2829.645882099998,2829.7287166999886,2832.6434246999997,,,,2831.7436480999895,2832.6595245999924,2832.6595245999924,2832.6595245999924,up,6.404825900011929,None,None,,,,,,,,,,,,,,,,,P153,001,2025-04-11_14h22.11.999,posner_endo_new1,2024.2.4,60.13887268333119,2025-04-11 14h22.18.350387 +0100,
cube_l.png,0.1,0.31,invalid,44,44,0,up,5.0974534999986645,None,space,0.33061170000291895,None,,,,,0,44,44,44,,,,,2832.6595245999924,,,,,,,,,,,,,2832.6436921999994,2832.6595245999924,2832.6595245999924,2832.6595245999924,2837.771633299999,,,,2837.7828015999985,2837.793042099991,2837.793042099991,2837.8373790999904,2837.8377309999923,2837.8542182999954,2837.8542182999954,2837.8542182999954,2837.9206653999863,2838.1882608999877,,,,,,,,up,5.0974534999986645,None,space,0.33061170000291895,None,,,,,,,,,,,,,,,P153,001,2025-04-11_14h22.11.999,posner_endo_new1,2024.2.4,60.13887268333119,2025-04-11 14h22.18.350387 +0100,
cube_l.png,0.1,0.31,invalid,45,45,0,up,10.177512500013108,None,space,0.31150399999751244,None,,,,,0,45,45,45,,,,,2838.203838699992,,,,,,,,,,,,,2838.1885458999895,2838.203838699992,2838.203838699992,2838.203838699992,2848.3941478999914,,,,2848.405420199997,2848.4154340999958,2848.4154340999958,2848.4600957999937,2848.4604472999927,2848.4765762999887,2848.4765762999887,2848.4765762999887,2848.5429136999883,2848.794167099986,,,,,,,,up,10.177512500013108,None,space,0.31150399999751244,None,,,,,,,,,,,,,,,P153,001,2025-04-11_14h22.11.999,posner_endo_new1,2024.2.4,60.13887268333119,2025-04-11 14h22.18.350387 +0100,
cube_r.png,0.1,0.31,valid,46,46,0,up,8.891935899999226,None,space,0.3649852000089595,None,,,,,0,46,46,46,,,,,2848.8096440999943,,,,,,,,,,,,,2848.7944499999867,2848.8096440999943,2848.8096440999943,2848.8096440999943,2857.7182728999906,,,,2857.7294916999963,2857.7393599999923,2857.7393599999923,2857.783792099988,2857.7841420999903,2857.8004749999964,2857.8004749999964,2857.8004749999964,2857.883633199992,2858.167999399986,,,,,,,,up,8.891935899999226,None,space,0.3649852000089595,None,,,,,,,,,,,,,,,P153,001,2025-04-11_14h22.11.999,posner_endo_new1,2024.2.4,60.13887268333119,2025-04-11 14h22.18.350387 +0100,
cube_l.png,0.1,-0.31,valid,47,47,0,up,9.775119599988102,None,space,0.2760591999976896,None,,,,,0,47,47,47,,,,,2858.1829695999913,,,,,,,,,,,,,2858.1682834999956,2858.1829695999913,2858.1829695999913,2858.1829695999913,2867.9746092999994,,,,2867.9838104999944,2867.9935407999874,2867.9935407999874,2868.0402018999885,2868.04046389999,2868.0562596999953,2868.0562596999953,2868.0562596999953,2868.139735699995,2868.3407754999935,,,,,,,,up,9.775119599988102,None,space,0.2760591999976896,None,,,,,,,,,,,,,,,P153,001,2025-04-11_14h22.11.999,posner_endo_new1,2024.2.4,60.13887268333119,2025-04-11 14h22.18.350387 +0100,
cube_r.png,0.1,-0.31,invalid,48,48,0,up,8.95315319999645,None,space,0.35605290000967216,None,,,,,0,48,48,48,,,,,2868.356368499997,,,,,,,,,,,,,2868.3409678999888,2868.356368499997,2868.356368499997,2868.356368499997,2877.3164927999896,,,,2877.3385677999904,2877.3497205999884,2877.3497205999884,2877.38003629999,2877.3803912999865,2877.396506499994,2877.396506499994,2877.396506499994,2877.4801399999997,2877.7639972999896,,,,,,,,up,8.95315319999645,None,space,0.35605290000967216,None,,,,,,,,,,,,,,,P153,001,2025-04-11_14h22.11.999,posner_endo_new1,2024.2.4,60.13887268333119,2025-04-11 14h22.18.350387 +0100,
cube_r.png,0.1,10,catch,49,49,0,up,9.849465299994336,None,None,,,,,,,0,49,49,49,,,,,2877.7799468999874,,,,,,,,,,,,,2877.764277299997,2877.7799468999874,2877.7799468999874,2877.7799468999874,2887.637449799993,,,,2887.648685299995,2887.6590171999997,2887.6590171999997,2887.7033367999975,2887.703687199988,2887.7193914999953,2887.7193914999953,2887.7193914999953,2887.803026499998,2890.717467999988,,,,2889.817561399992,2890.733014199999,2890.733014199999,2890.733014199999,up,9.849465299994336,None,None,,,,,,,,,,,,,,,,,P153,001,2025-04-11_14h22.11.999,posner_endo_new1,2024.2.4,60.13887268333119,2025-04-11 14h22.18.350387 +0100,
cube_l.png,0.1,-0.31,valid,50,50,0,up,5.016520399993169,None,space,0.22383469999476802,None,,,,,0,50,50,50,,,,,2890.733014199999,,,,,,,,,,,,,2890.717732499994,2890.733014199999,2890.733014199999,2890.733014199999,2895.7623778999987,,,,2895.7735525999888,2895.783576799993,2895.783576799993,2895.828350099997,2895.828702599989,2895.8444859999872,2895.8444859999872,2895.8444859999872,2895.928081299993,2896.0790916999977,,,,,,,,up,5.016520399993169,None,space,0.22383469999476802,None,,,,,,,,,,,,,,,P153,001,2025-04-11_14h22.11.999,posner_endo_new1,2024.2.4,60.13887268333119,2025-04-11 14h22.18.350387 +0100,
cube_l.png,0.1,-0.31,valid,51,51,0,up,8.74241439999605,None,space,0.3902918999956455,None,,,,,0,51,51,51,,,,,2896.0944258999953,,,,,,,,,,,,,2896.079379799994,2896.0944258999953,2896.0944258999953,2896.0944258999953,2904.853021099989,,,,2904.864248099999,2904.8741149999987,2904.8741149999987,2904.918910399996,2904.9192598999944,2904.9355170999916,2904.9355170999916,2904.9355170999916,2905.0017806999967,2905.336168799986,,,,,,,,up,8.74241439999605,None,space,0.3902918999956455,None,,,,,,,,,,,,,,,P153,001,2025-04-11_14h22.11.999,posner_endo_new1,2024.2.4,60.13887268333119,2025-04-11 14h22.18.350387 +0100,
cube_r.png,0.1,-0.31,invalid,52,52,0,up,7.390227500000037,None,space,0.2841169000021182,None,,,,,0,52,52,52,,,,,2905.351329099998,,,,,,,,,,,,,2905.3364543999924,2905.351329099998,2905.351329099998,2905.351329099998,2912.7453382999956,,,,2912.756624799993,2912.766745999994,2912.766745999994,2912.811005299998,2912.8113529999973,2912.8272239999933,2912.8272239999933,2912.8272239999933,2912.910758699989,2913.128202699998,,,,,,,,up,7.390227500000037,None,space,0.2841169000021182,None,,,,,,,,,,,,,,,P153,001,2025-04-11_14h22.11.999,posner_endo_new1,2024.2.4,60.13887268333119,2025-04-11 14h22.18.350387 +0100,
cube_l.png,0.1,-0.31,valid,53,53,0,up,8.33337219999521,None,space,0.2829100000089966,None,,,,,0,53,53,53,,,,,2913.143858899988,,,,,,,,,,,,,2913.128490099989,2913.143858899988,2913.143858899988,2913.143858899988,2921.4863014999864,,,,2921.4974894999905,2921.5077797999984,2921.5077797999984,2921.552020899995,2921.5523848999874,2921.568192699997,2921.568192699997,2921.568192699997,2921.651819299994,2921.852928399996,,,,,,,,up,8.33337219999521,None,space,0.2829100000089966,None,,,,,,,,,,,,,,,P153,001,2025-04-11_14h22.11.999,posner_endo_new1,2024.2.4,60.13887268333119,2025-04-11 14h22.18.350387 +0100,
cube_r.png,0.1,10,catch,54,54,0,up,8.210470299993176,None,space,0.2088821000070311,None,,,,,0,54,54,54,,,,,2921.8678311999975,,,,,,,,,,,,,2921.853219899989,2921.8678311999975,2921.8678311999975,2921.8678311999975,2930.0942342999915,,,,2930.105385499992,2930.1154160999868,2930.1154160999868,2930.1594564999978,2930.159805999996,2930.1763169999904,2930.1763169999904,2930.1763169999904,2930.259519299987,2930.3939347999985,,,,,,,,up,8.210470299993176,None,space,0.2088821000070311,None,,,,,,,,,,,,,,,P153,001,2025-04-11_14h22.11.999,posner_endo_new1,2024.2.4,60.13887268333119,2025-04-11 14h22.18.350387 +0100,
cube_l.png,0.1,0.31,invalid,55,55,0,up,8.180377299999236,None,space,0.4528583999926923,None,,,,,0,55,55,55,,,,,2930.4091248999903,,,,,,,,,,,,,2930.394222899995,2930.4091248999903,2930.4091248999903,2930.4091248999903,2938.6022312999994,,,,2938.613359099996,2938.623620899991,2938.623620899991,2938.6677968999866,2938.6681459999963,2938.684346599999,2938.684346599999,2938.684346599999,2938.7673039999936,2939.151288899986,,,,,,,,up,8.180377299999236,None,space,0.4528583999926923,None,,,,,,,,,,,,,,,P153,001,2025-04-11_14h22.11.999,posner_endo_new1,2024.2.4,60.13887268333119,2025-04-11 14h22.18.350387 +0100,
cube_l.png,0.1,-0.31,valid,56,56,0,up,8.382879700002377,None,space,0.3360946999891894,None,,,,,0,56,56,56,,,,,2939.166787899987,,,,,,,,,,,,,2939.15157229999,2939.166787899987,2939.166787899987,2939.166787899987,2947.5596547999885,,,,2947.5709045999974,2947.5812592,2947.5812592,2947.6253782999993,2947.6257311999943,2947.6415165999933,2947.6415165999933,2947.6415165999933,2947.724997799989,2947.9923277999915,,,,,,,,up,8.382879700002377,None,space,0.3360946999891894,None,,,,,,,,,,,,,,,P153,001,2025-04-11_14h22.11.999,posner_endo_new1,2024.2.4,60.13887268333119,2025-04-11 14h22.18.350387 +0100,
cube_r.png,0.1,0.31,valid,57,57,0,up,7.788711100001819,None,space,0.2986068000027444,None,,,,,0,57,57,57,,,,,2948.0081452999875,,,,,,,,,,,,,2947.9926159999886,2948.0081452999875,2948.0081452999875,2948.0081452999875,2955.802958299988,,,,2955.822818799992,2955.8329925,2955.8329925,2955.866434599986,2955.8668325999897,2955.8829198999883,2955.8829198999883,2955.8829198999883,2955.9661658999976,2956.184041699991,,,,,,,,up,7.788711100001819,None,space,0.2986068000027444,None,,,,,,,,,,,,,,,P153,001,2025-04-11_14h22.11.999,posner_endo_new1,2024.2.4,60.13887268333119,2025-04-11 14h22.18.350387 +0100,
cube_r.png,0.1,-0.31,invalid,58,58,0,up,7.181425100003253,None,space,0.3478404999914346,None,,,,,0,58,58,58,,,,,2956.1994252999866,,,,,,,,,,,,,2956.1843684999913,2956.1994252999866,2956.1994252999866,2956.1994252999866,2963.393232599992,,,,2963.405659799988,2963.415693099989,2963.415693099989,2963.4586882999865,2963.4590854999988,2963.4751812999893,2963.4751812999893,2963.4751812999893,2963.558436099993,2963.826420399986,,,,,,,,up,7.181425100003253,None,space,0.3478404999914346,None,,,,,,,,,,,,,,,P153,001,2025-04-11_14h22.11.999,posner_endo_new1,2024.2.4,60.13887268333119,2025-04-11 14h22.18.350387 +0100,
cube_l.png,0.1,0.31,invalid,59,59,0,up,8.707559599992237,None,space,0.3856015000055777,None,,,,,0,59,59,59,,,,,2963.841503699994,,,,,,,,,,,,,2963.826736399991,2963.841503699994,2963.841503699994,2963.841503699994,2972.5506117999903,,,,2972.5631589999975,2972.5731524999865,2972.5731524999865,2972.6161371999915,2972.6165417999873,2972.632482199988,2972.632482199988,2972.632482199988,2972.7157057999866,2973.033383899994,,,,,,,,up,8.707559599992237,None,space,0.3856015000055777,None,,,,,,,,,,,,,,,P153,001,2025-04-11_14h22.11.999,posner_endo_new1,2024.2.4,60.13887268333119,2025-04-11 14h22.18.350387 +0100,
,,,,,,,,,,,,,,,,,,,,,,,,,,,,,,,,,,,,,,,,,,,,,,,,,,,,,,,,,,,,,,,,,,,,,2973.0335893999872,2973.0487361999985,2973.0487361999985,3033.054342599993,3035.9354393999965,space,62.88443199999165,None,,,,,,,P153,001,2025-04-11_14h22.11.999,posner_endo_new1,2024.2.4,60.13887268333119,2025-04-11 14h22.18.350387 +0100,
,,,,,,,,,,,,,,,,,,,,,,,,,,,,,,,,,,3035.935507099988,3035.9510504999926,3039.019623999993,3038.931924299992,,,,,,,,,,,,,,,,,,,,,,,,,,,,,,,,,,,,,,,,,,,,,,P153,001,2025-04-11_14h22.11.999,posner_endo_new1,2024.2.4,60.13887268333119,2025-04-11 14h22.18.350387 +0100,
cube_l.png,0.1,10,catch,0,0,0,down,5.009708900004625,None,None,,,,,,,,,,,0,0,0,0,3039.019623999993,,,,,,,,,,,,,3039.0115212999954,3039.019623999993,3039.019623999993,3039.019623999993,3044.0438308999874,,,,3044.0533010999934,3044.0637308999867,3044.0637308999867,3044.1102850999887,3044.110993299997,3044.1266012999986,3044.1266012999986,3044.1266012999986,3044.193180599992,3047.124985699993,,,,3046.207809399988,3047.1401558999933,3047.1401558999933,3047.1401558999933,,,,,,,,,,,,,,,down,5.009708900004625,None,None,,,P153,001,2025-04-11_14h22.11.999,posner_endo_new1,2024.2.4,60.13887268333119,2025-04-11 14h22.18.350387 +0100,
cube_l.png,0.1,10,catch,1,1,0,down,4.529375199999777,None,None,,,,,,,,,,,0,1,1,1,3047.1401558999933,,,,,,,,,,,,,3047.125548099997,3047.1401558999933,3047.1401558999933,3047.1401558999933,3051.6718903,,,,3051.6940380999877,3051.706587599998,3051.706587599998,3051.7349168999936,3051.7352305999957,3051.751340799994,3051.751340799994,3051.751340799994,3051.8348313999886,3054.74928969999,,,,3053.849750999987,3054.7654388999945,3054.7654388999945,3054.7654388999945,,,,,,,,,,,,,,,down,4.529375199999777,None,None,,,P153,001,2025-04-11_14h22.11.999,posner_endo_new1,2024.2.4,60.13887268333119,2025-04-11 14h22.18.350387 +0100,
cube_l.png,0.1,0.31,invalid,2,2,0,down,3.935579400000279,None,space,0.44380290000117384,None,,,,,,,,,0,2,2,2,3054.7654388999945,,,,,,,,,,,,,3054.7495288999926,3054.7654388999945,3054.7654388999945,3054.7654388999945,3058.713898599992,,,,3058.736221599989,3058.748345199987,3058.748345199987,3058.7777941999957,3058.778146299999,3058.794769699991,3058.794769699991,3058.794769699991,3058.878015999988,3059.245484599989,,,,,,,,,,,,,,,,,,,,,,down,3.935579400000279,None,space,0.44380290000117384,None,P153,001,2025-04-11_14h22.11.999,posner_endo_new1,2024.2.4,60.13887268333119,2025-04-11 14h22.18.350387 +0100,
cube_l.png,0.1,0.31,invalid,3,3,0,down,7.51277349999873,None,space,0.35119139999733306,None,,,,,,,,,0,3,3,3,3059.2609161999862,,,,,,,,,,,,,3059.245781699996,3059.2609161999862,3059.2609161999862,3059.2609161999862,3066.7877327999886,,,,3066.798976399994,3066.8093060999963,3066.8093060999963,3066.853263699988,3066.8536157999915,3066.8694509999914,3066.8694509999914,3066.8694509999914,3066.952985099997,3067.237201799988,,,,,,,,,,,,,,,,,,,,,,down,7.51277349999873,None,space,0.35119139999733306,None,P153,001,2025-04-11_14h22.11.999,posner_endo_new1,2024.2.4,60.13887268333119,2025-04-11 14h22.18.350387 +0100,
cube_l.png,0.1,-0.31,valid,4,4,0,down,7.344766199996229,None,space,0.41194540000287816,None,,,,,,,,,0,4,4,4,3067.2527883000002,,,,,,,,,,,,,3067.2374924999895,3067.2527883000002,3067.2527883000002,3067.2527883000002,3074.6130971999955,,,,3074.622700199994,3074.632388699989,3074.632388699989,3074.6788188999926,3074.6790806999925,3074.69503979999,3074.69503979999,3074.69503979999,3074.7784407,3075.1120269999956,,,,,,,,,,,,,,,,,,,,,,down,7.344766199996229,None,space,0.41194540000287816,None,P153,001,2025-04-11_14h22.11.999,posner_endo_new1,2024.2.4,60.13887268333119,2025-04-11 14h22.18.350387 +0100,
cube_r.png,0.1,-0.31,invalid,5,5,0,down,7.525462499994319,None,space,0.3416556000011042,None,,,,,,,,,0,5,5,5,3075.1279919999943,,,,,,,,,,,,,3075.1122255999944,3075.1279919999943,3075.1279919999943,3075.1279919999943,3082.6563529999985,,,,3082.6786097999866,3082.6907569999894,3082.6907569999894,3082.7201826999953,3082.720607899988,3082.736444799986,3082.736444799986,3082.736444799986,3082.819858399991,3083.0874895999877,,,,,,,,,,,,,,,,,,,,,,down,7.525462499994319,None,space,0.3416556000011042,None,P153,001,2025-04-11_14h22.11.999,posner_endo_new1,2024.2.4,60.13887268333119,2025-04-11 14h22.18.350387 +0100,
cube_r.png,0.1,0.31,valid,6,6,0,down,6.110561100009363,None,space,0.4668736000021454,None,,,,,,,,,0,6,6,6,3083.102782899994,,,,,,,,,,,,,3083.08781669999,3083.102782899994,3083.102782899994,3083.102782899994,3089.214653999996,,,,3089.2269264999923,3089.2369460999907,3089.2369460999907,3089.2799875999917,3089.2803881,3089.296398099992,3089.296398099992,3089.296398099992,3089.3797185999865,3089.780410099993,,,,,,,,,,,,,,,,,,,,,,down,6.110561100009363,None,space,0.4668736000021454,None,P153,001,2025-04-11_14h22.11.999,posner_endo_new1,2024.2.4,60.13887268333119,2025-04-11 14h22.18.350387 +0100,
cube_r.png,0.1,-0.31,invalid,7,7,0,down,7.3213065000018105,None,space,0.3700523000006797,None,,,,,,,,,0,7,7,7,3089.795899799996,,,,,,,,,,,,,3089.780738299989,3089.795899799996,3089.795899799996,3089.795899799996,3097.1230111999903,,,,3097.135422799998,3097.145441899993,3097.145441899993,3097.1885377,3097.1889343999937,3097.2049692999863,3097.2049692999863,3097.2049692999863,3097.2882151999947,3097.589405199993,,,,,,,,,,,,,,,,,,,,,,down,7.3213065000018105,None,space,0.3700523000006797,None,P153,001,2025-04-11_14h22.11.999,posner_endo_new1,2024.2.4,60.13887268333119,2025-04-11 14h22.18.350387 +0100,
cube_l.png,0.1,-0.31,valid,8,8,0,down,6.064961399999447,None,space,0.32728540000971407,None,,,,,,,,,0,8,8,8,3097.6045608999993,,,,,,,,,,,,,3097.5897329,3097.6045608999993,3097.6045608999993,3097.6045608999993,3103.6829383000004,,,,3103.695423799989,3103.705453799994,3103.705453799994,3103.748609999995,3103.749000699987,3103.7649586999905,3103.7649586999905,3103.7649586999905,3103.848176399988,3104.0994251999946,,,,,,,,,,,,,,,,,,,,,,down,6.064961399999447,None,space,0.32728540000971407,None,P153,001,2025-04-11_14h22.11.999,posner_endo_new1,2024.2.4,60.13887268333119,2025-04-11 14h22.18.350387 +0100,
cube_r.png,0.1,-0.31,invalid,9,9,0,down,8.955701999992016,None,space,0.5728488999884576,None,,,,,,,,,0,9,9,9,3104.114564699994,,,,,,,,,,,,,3104.099755499992,3104.114564699994,3104.114564699994,3104.114564699994,3113.0732426999894,,,,3113.0821657999913,3113.092519599988,3113.092519599988,3113.1389106999995,3113.1393115999963,3113.155334899988,3113.155334899988,3113.155334899988,3113.238691199993,3113.7391512999893,,,,,,,,,,,,,,,,,,,,,,down,8.955701999992016,None,space,0.5728488999884576,None,P153,001,2025-04-11_14h22.11.999,posner_endo_new1,2024.2.4,60.13887268333119,2025-04-11 14h22.18.350387 +0100,
cube_l.png,0.1,0.31,invalid,10,10,0,down,6.059273699996993,None,space,0.27670050000597257,None,,,,,,,,,0,10,10,10,3113.7552079999878,,,,,,,,,,,,,3113.739389999988,3113.7552079999878,3113.7552079999878,3113.7552079999878,3119.8162947999954,,,,3119.8243349999975,3119.8348486999894,3119.8348486999894,3119.8823906999896,3119.8829504999885,3119.8988269999973,3119.8988269999973,3119.8988269999973,3119.9653806999995,3120.1837263999914,,,,,,,,,,,,,,,,,,,,,,down,6.059273699996993,None,space,0.27670050000597257,None,P153,001,2025-04-11_14h22.11.999,posner_endo_new1,2024.2.4,60.13887268333119,2025-04-11 14h22.18.350387 +0100,
cube_r.png,0.1,-0.31,invalid,11,11,0,down,7.59040630000527,None,space,0.24652559999958612,None,,,,,,,,,0,11,11,11,3120.198536799988,,,,,,,,,,,,,3120.184197499999,3120.198536799988,3120.198536799988,3120.198536799988,3127.7927547,,,,3127.8104900999897,3127.8207159999874,3127.8207159999874,3127.8571220999875,3127.8574582,3127.874171599993,3127.874171599993,3127.874171599993,3127.9571122999914,3128.1248269999924,,,,,,,,,,,,,,,,,,,,,,down,7.59040630000527,None,space,0.24652559999958612,None,P153,001,2025-04-11_14h22.11.999,posner_endo_new1,2024.2.4,60.13887268333119,2025-04-11 14h22.18.350387 +0100,
cube_r.png,0.1,0.31,valid,12,12,0,down,7.856433499997365,None,space,0.2936234000080731,None,,,,,,,,,0,12,12,12,3128.140397199997,,,,,,,,,,,,,3128.1251054999884,3128.140397199997,3128.140397199997,3128.140397199997,3136.0003308999876,,,,3136.011028299996,3136.0211882000003,3136.0211882000003,3136.0659094999864,3136.0662450999953,3136.082266799989,3136.082266799989,3136.082266799989,3136.165572599988,3136.3830279999966,,,,,,,,,,,,,,,,,,,,,,down,7.856433499997365,None,space,0.2936234000080731,None,P153,001,2025-04-11_14h22.11.999,posner_endo_new1,2024.2.4,60.13887268333119,2025-04-11 14h22.18.350387 +0100,
cube_l.png,0.1,10,catch,13,13,0,down,9.574456200003624,None,space,0.2779702999978326,None,,,,,,,,,0,13,13,13,3136.398230599996,,,,,,,,,,,,,3136.3833060999896,3136.398230599996,3136.398230599996,3136.398230599996,3145.989927399991,,,,3146.000512899991,3146.010513599991,3146.010513599991,3146.055658799989,3146.0559931999887,3146.071704999995,3146.071704999995,3146.071704999995,3146.1549614999967,3146.3562007999863,,,,,,,,,,,,,,,,,,,,,,down,9.574456200003624,None,space,0.2779702999978326,None,P153,001,2025-04-11_14h22.11.999,posner_endo_new1,2024.2.4,60.13887268333119,2025-04-11 14h22.18.350387 +0100,
cube_r.png,0.1,-0.31,invalid,14,14,0,down,8.842244599989499,None,space,0.33723879999888595,None,,,,,,,,,0,14,14,14,3146.371862099986,,,,,,,,,,,,,3146.3564931,3146.371862099986,3146.371862099986,3146.371862099986,3155.230152499993,,,,3155.240539899998,3155.2505269999965,3155.2505269999965,3155.2957636999927,3155.2961059999943,3155.3126717999985,3155.3126717999985,3155.3126717999985,3155.395939599999,3155.6632402999967,,,,,,,,,,,,,,,,,,,,,,down,8.842244599989499,None,space,0.33723879999888595,None,P153,001,2025-04-11_14h22.11.999,posner_endo_new1,2024.2.4,60.13887268333119,2025-04-11 14h22.18.350387 +0100,
cube_l.png,0.1,-0.31,valid,15,15,0,down,11.382360800009337,None,space,0.3386348000058206,None,,,,,,,,,0,15,15,15,3155.679013099987,,,,,,,,,,,,,3155.6635179999867,3155.679013099987,3155.679013099987,3155.679013099987,3167.0684067999973,,,,3167.079000499987,3167.089208899997,3167.089208899997,3167.133678399987,3167.1340132999903,3167.150571499995,3167.150571499995,3167.150571499995,3167.2335021999897,3167.500878699997,,,,,,,,,,,,,,,,,,,,,,down,11.382360800009337,None,space,0.3386348000058206,None,P153,001,2025-04-11_14h22.11.999,posner_endo_new1,2024.2.4,60.13887268333119,2025-04-11 14h22.18.350387 +0100,
cube_r.png,0.1,10,catch,16,16,0,down,8.320094700000482,None,None,,,,,,,,,,,0,16,16,16,3167.516867399987,,,,,,,,,,,,,3167.501159499996,3167.516867399987,3167.516867399987,3167.516867399987,3175.8423365999915,,,,3175.8526940999873,3175.8629986999877,3175.8629986999877,3175.9084225999977,3175.908754899996,3175.9245045999996,3175.9245045999996,3175.9245045999996,3176.0078121999977,3178.9224141999875,,,,3178.022431899997,3178.938472599999,3178.938472599999,3178.938472599999,,,,,,,,,,,,,,,down,8.320094700000482,None,None,,,P153,001,2025-04-11_14h22.11.999,posner_endo_new1,2024.2.4,60.13887268333119,2025-04-11 14h22.18.350387 +0100,
cube_r.png,0.1,10,catch,17,17,0,down,8.106941700010793,None,None,,,,,,,,,,,0,17,17,17,3178.938472599999,,,,,,,,,,,,,3178.9226812999987,3178.938472599999,3178.938472599999,3178.938472599999,3187.047600699996,,,,3187.057790699997,3187.0684765999904,3187.0684765999904,3187.11323409999,3187.113574099989,3187.130019999997,3187.130019999997,3187.130019999997,3187.2133482999925,3190.1274497999984,,,,3189.2278537999955,3190.1436569999933,3190.1436569999933,3190.1436569999933,,,,,,,,,,,,,,,down,8.106941700010793,None,None,,,P153,001,2025-04-11_14h22.11.999,posner_endo_new1,2024.2.4,60.13887268333119,2025-04-11 14h22.18.350387 +0100,
cube_l.png,0.1,0.31,invalid,18,18,0,down,5.797268499998609,None,space,0.4232447999966098,None,,,,,,,,,0,18,18,18,3190.1436569999933,,,,,,,,,,,,,3190.1277076999977,3190.1436569999933,3190.1436569999933,3190.1436569999933,3195.9553841999877,,,,3195.9658928999997,3195.976074399994,3195.976074399994,3196.02076069999,3196.0210988999897,3196.0375723999896,3196.0375723999896,3196.0375723999896,3196.1205023999937,3196.4715866999904,,,,,,,,,,,,,,,,,,,,,,down,5.797268499998609,None,space,0.4232447999966098,None,P153,001,2025-04-11_14h22.11.999,posner_endo_new1,2024.2.4,60.13887268333119,2025-04-11 14h22.18.350387 +0100,
cube_l.png,0.1,10,catch,19,19,0,down,7.741683300002478,None,None,,,,,,,,,,,0,19,19,19,3196.487230599989,,,,,,,,,,,,,3196.4718678999925,3196.487230599989,3196.487230599989,3196.487230599989,3204.2304083999916,,,,3204.240939299998,3204.2511471999896,3204.2511471999896,3204.2959724999964,3204.2963081999915,3204.3122849999927,3204.3122849999927,3204.3122849999927,3204.3954828999995,3207.3100949999935,,,,3206.410159399995,3207.3260280999966,3207.3260280999966,3207.3260280999966,,,,,,,,,,,,,,,down,7.741683300002478,None,None,,,P153,001,2025-04-11_14h22.11.999,posner_endo_new1,2024.2.4,60.13887268333119,2025-04-11 14h22.18.350387 +0100,
cube_l.png,0.1,0.31,invalid,20,20,0,down,4.854835399994045,None,space,0.3340152000018861,None,,,,,,,,,0,20,20,20,3207.3260280999966,,,,,,,,,,,,,3207.3103563999903,3207.3260280999966,3207.3260280999966,3207.3260280999966,3212.1895444999973,,,,3212.2073998999986,3212.2186689999944,3212.2186689999944,3212.2545497999963,3212.2551164999895,3212.27092499999,3212.27092499999,3212.27092499999,3212.3542088999966,3212.622276299997,,,,,,,,,,,,,,,,,,,,,,down,4.854835399994045,None,space,0.3340152000018861,None,P153,001,2025-04-11_14h22.11.999,posner_endo_new1,2024.2.4,60.13887268333119,2025-04-11 14h22.18.350387 +0100,
cube_l.png,0.1,-0.31,valid,21,21,0,down,9.599944000001415,None,space,0.356057700002566,None,,,,,,,,,0,21,21,21,3212.637281099989,,,,,,,,,,,,,3212.6227488000004,3212.637281099989,3212.637281099989,3212.637281099989,3222.2452261,,,,3222.2540997999895,3222.2639832999994,3222.2639832999994,3222.310729299992,3222.311278299996,3222.3273879999906,3222.3273879999906,3222.3273879999906,3222.410545699997,3222.6954642999917,,,,,,,,,,,,,,,,,,,,,,down,9.599944000001415,None,space,0.356057700002566,None,P153,001,2025-04-11_14h22.11.999,posner_endo_new1,2024.2.4,60.13887268333119,2025-04-11 14h22.18.350387 +0100,
cube_r.png,0.1,0.31,valid,22,22,0,down,7.710544400004437,None,space,0.18860249999852385,None,,,,,,,,,0,22,22,22,3222.7102352999937,,,,,,,,,,,,,3222.695940199992,3222.7102352999937,3222.7102352999937,3222.7102352999937,3230.4369578999904,,,,3230.4482221999933,3230.4584844999918,3230.4584844999918,3230.5022330999927,3230.502583099995,3230.5191459999915,3230.5191459999915,3230.5191459999915,3230.601913099992,3230.720001099995,,,,,,,,,,,,,,,,,,,,,,down,7.710544400004437,None,space,0.18860249999852385,None,P153,001,2025-04-11_14h22.11.999,posner_endo_new1,2024.2.4,60.13887268333119,2025-04-11 14h22.18.350387 +0100,
cube_r.png,0.1,-0.31,invalid,23,23,0,down,10.359258399999817,None,space,0.438306800002465,None,,,,,,,,,0,23,23,23,3230.7353854999965,,,,,,,,,,,,,3230.720299099994,3230.7353854999965,3230.7353854999965,3230.7353854999965,3241.110589799995,,,,3241.132838099991,3241.144471099993,3241.144471099993,3241.174606799992,3241.1749974999984,3241.1910179999977,3241.1910179999977,3241.1910179999977,3241.2742568999965,3241.641870099993,,,,,,,,,,,,,,,,,,,,,,down,10.359258399999817,None,space,0.438306800002465,None,P153,001,2025-04-11_14h22.11.999,posner_endo_new1,2024.2.4,60.13887268333119,2025-04-11 14h22.18.350387 +0100,
cube_r.png,0.1,0.31,valid,24,24,0,down,8.572066399996402,None,space,0.5455505999998422,None,,,,,,,,,0,24,24,24,3241.657147799997,,,,,,,,,,,,,3241.642197899986,3241.657147799997,3241.657147799997,3241.657147799997,3250.2328091999952,,,,3250.2391027999984,3250.250836799998,3250.250836799998,3250.299098999996,3250.2994174999913,3250.315356299994,3250.315356299994,3250.315356299994,3250.3823545999912,3250.867413199987,,,,,,,,,,,,,,,,,,,,,,down,8.572066399996402,None,space,0.5455505999998422,None,P153,001,2025-04-11_14h22.11.999,posner_endo_new1,2024.2.4,60.13887268333119,2025-04-11 14h22.18.350387 +0100,
cube_r.png,0.1,-0.31,invalid,25,25,0,down,10.27588200000173,None,space,0.31754439999349415,None,,,,,,,,,0,25,25,25,3250.8817625999945,,,,,,,,,,,,,3250.8680241999973,3250.8817625999945,3250.8817625999945,3250.8817625999945,3261.1718742999947,,,,3261.181127299991,3261.191334499992,3261.191334499992,3261.237381199986,3261.237698599987,3261.253910399988,3261.253910399988,3261.253910399988,3261.337561799999,3261.58827149999,,,,,,,,,,,,,,,,,,,,,,down,10.27588200000173,None,space,0.31754439999349415,None,P153,001,2025-04-11_14h22.11.999,posner_endo_new1,2024.2.4,60.13887268333119,2025-04-11 14h22.18.350387 +0100,
cube_l.png,0.1,-0.31,valid,26,26,0,down,7.4730969999945955,None,space,0.30346839998674113,None,,,,,,,,,0,26,26,26,3261.6038676999888,,,,,,,,,,,,,3261.588530599998,3261.6038676999888,3261.6038676999888,3261.6038676999888,3269.080627699994,,,,3269.0912361999945,3269.101497099997,3269.101497099997,3269.1463337999885,3269.146667299996,3269.1623877999955,3269.1623877999955,3269.1623877999955,3269.2456796999904,3269.4802544999984,,,,,,,,,,,,,,,,,,,,,,down,7.4730969999945955,None,space,0.30346839998674113,None,P153,001,2025-04-11_14h22.11.999,posner_endo_new1,2024.2.4,60.13887268333119,2025-04-11 14h22.18.350387 +0100,
cube_r.png,0.1,0.31,valid,27,27,0,down,6.781685699999798,None,space,0.21962280001025647,None,,,,,,,,,0,27,27,27,3269.495764399995,,,,,,,,,,,,,3269.4805311999953,3269.495764399995,3269.495764399995,3269.495764399995,3276.2899562999955,,,,3276.3005787999864,3276.310892399997,3276.310892399997,3276.355607599995,3276.3559412999894,3276.3720603999973,3276.3720603999973,3276.3720603999973,3276.4549786999996,3276.606221799986,,,,,,,,,,,,,,,,,,,,,,down,6.781685699999798,None,space,0.21962280001025647,None,P153,001,2025-04-11_14h22.11.999,posner_endo_new1,2024.2.4,60.13887268333119,2025-04-11 14h22.18.350387 +0100,
cube_r.png,0.1,10,catch,28,28,0,down,8.99991709999449,None,space,0.2871551999996882,None,,,,,,,,,0,28,28,28,3276.6214299999992,,,,,,,,,,,,,3276.606498399997,3276.6214299999992,3276.6214299999992,3276.6214299999992,3285.6303400999896,,,,3285.6413640999963,3285.6515698999865,3285.6515698999865,3285.6959492999886,3285.696289799991,3285.7122205999913,3285.7122205999913,3285.7122205999913,3285.795434499989,3286.0133338999876,,,,,,,,,,,,,,,,,,,,,,down,8.99991709999449,None,space,0.2871551999996882,None,P153,001,2025-04-11_14h22.11.999,posner_endo_new1,2024.2.4,60.13887268333119,2025-04-11 14h22.18.350387 +0100,
cube_r.png,0.1,0.31,valid,29,29,0,down,9.44903579998936,None,space,0.3511651000007987,None,,,,,,,,,0,29,29,29,3286.028507099996,,,,,,,,,,,,,3286.013611999995,3286.028507099996,3286.028507099996,3286.028507099996,3295.4870079999964,,,,3295.4975634,3295.5078652999946,3295.5078652999946,3295.552209699992,3295.5525531999883,3295.569096799998,3295.569096799998,3295.569096799998,3295.652352799996,3295.936128599991,,,,,,,,,,,,,,,,,,,,,,down,9.44903579998936,None,space,0.3511651000007987,None,P153,001,2025-04-11_14h22.11.999,posner_endo_new1,2024.2.4,60.13887268333119,2025-04-11 14h22.18.350387 +0100,
cube_r.png,0.1,0.31,valid,30,30,0,down,6.356796100008069,None,space,0.34394810000958387,None,,,,,,,,,0,30,30,30,3295.9519411999936,,,,,,,,,,,,,3295.9364107999863,3295.9519411999936,3295.9519411999936,3295.9519411999936,3302.3130104999873,,,,3302.3223791999917,3302.3320843999973,3302.3320843999973,3302.3790063999913,3302.3792504999874,3302.395095099986,3302.395095099986,3302.395095099986,3302.462065899992,3302.7477201,,,,,,,,,,,,,,,,,,,,,,down,6.356796100008069,None,space,0.34394810000958387,None,P153,001,2025-04-11_14h22.11.999,posner_endo_new1,2024.2.4,60.13887268333119,2025-04-11 14h22.18.350387 +0100,
cube_l.png,0.1,-0.31,valid,31,31,0,down,8.50707870000042,None,space,0.2853456000011647,None,,,,,,,,,0,31,31,31,3302.7620102999936,,,,,,,,,,,,,3302.7483274999977,3302.7620102999936,3302.7620102999936,3302.7620102999936,3311.272319999989,,,,3311.292539999995,3311.3027097999875,3311.3027097999875,3311.3360451999906,3311.336439199993,3311.3525260999886,3311.3525260999886,3311.3525260999886,3311.435771199991,3311.6535539999895,,,,,,,,,,,,,,,,,,,,,,down,8.50707870000042,None,space,0.2853456000011647,None,P153,001,2025-04-11_14h22.11.999,posner_endo_new1,2024.2.4,60.13887268333119,2025-04-11 14h22.18.350387 +0100,
cube_r.png,0.1,0.31,valid,32,32,0,down,9.207899000000907,None,space,0.2969770000054268,None,,,,,,,,,0,32,32,32,3311.668949199986,,,,,,,,,,,,,3311.653918199998,3311.668949199986,3311.668949199986,3311.668949199986,3320.877781599993,,,,3320.8862645999907,3320.895859799988,3320.895859799988,3320.9433019999997,3320.943861199994,3320.959836899987,3320.959836899987,3320.959836899987,3321.0429813999945,3321.2616439999983,,,,,,,,,,,,,,,,,,,,,,down,9.207899000000907,None,space,0.2969770000054268,None,P153,001,2025-04-11_14h22.11.999,posner_endo_new1,2024.2.4,60.13887268333119,2025-04-11 14h22.18.350387 +0100,
cube_r.png,0.1,-0.31,invalid,33,33,0,down,7.641409599993494,None,space,0.319395300000906,None,,,,,,,,,0,33,33,33,3321.276101999989,,,,,,,,,,,,,3321.262140599996,3321.276101999989,3321.276101999989,3321.276101999989,3328.919648199997,,,,3328.930882899993,3328.941124799996,3328.941124799996,3328.985021799992,3328.9853686999995,3329.001299999989,3329.001299999989,3329.001299999989,3329.0848072999943,3329.3353348999954,,,,,,,,,,,,,,,,,,,,,,down,7.641409599993494,None,space,0.319395300000906,None,P153,001,2025-04-11_14h22.11.999,posner_endo_new1,2024.2.4,60.13887268333119,2025-04-11 14h22.18.350387 +0100,
cube_r.png,0.1,10,catch,34,34,0,down,8.461844399993424,None,None,,,,,,,,,,,0,34,34,34,3329.3511094999994,,,,,,,,,,,,,3329.335630799993,3329.3511094999994,3329.3511094999994,3329.3511094999994,3337.8267255999963,,,,3337.8380331999942,3337.84820149999,3337.84820149999,3337.892512499995,3337.892863999994,3337.90885159999,3337.90885159999,3337.90885159999,3337.9923156999866,3340.906691799988,,,,3340.0068690999906,3340.9226150999893,3340.9226150999893,3340.9226150999893,,,,,,,,,,,,,,,down,8.461844399993424,None,None,,,P153,001,2025-04-11_14h22.11.999,posner_endo_new1,2024.2.4,60.13887268333119,2025-04-11 14h22.18.350387 +0100,
cube_r.png,0.1,0.31,valid,35,35,0,down,3.9309777000016766,None,space,0.298600100009935,None,,,,,,,,,0,35,35,35,3340.9226150999893,,,,,,,,,,,,,3340.906964599999,3340.9226150999893,3340.9226150999893,3340.9226150999893,3344.8695009999938,,,,3344.880830599999,3344.890666099993,3344.890666099993,3344.9354255999933,3344.9357881999895,3344.952111099992,3344.952111099992,3344.952111099992,3345.0351898999943,3345.2529068999866,,,,,,,,,,,,,,,,,,,,,,down,3.9309777000016766,None,space,0.298600100009935,None,P153,001,2025-04-11_14h22.11.999,posner_endo_new1,2024.2.4,60.13887268333119,2025-04-11 14h22.18.350387 +0100,
cube_r.png,0.1,-0.31,invalid,36,36,0,down,8.513159599999199,None,space,0.3548104999936186,None,,,,,,,,,0,36,36,36,3345.2680799999944,,,,,,,,,,,,,3345.2532001999934,3345.2680799999944,3345.2680799999944,3345.2680799999944,3353.7936248999904,,,,3353.803114299997,3353.8132568999863,3353.8132568999863,3353.859785499997,3353.860046099988,3353.8760323999886,3353.8760323999886,3353.8760323999886,3353.94279809999,3354.2433010999957,,,,,,,,,,,,,,,,,,,,,,down,8.513159599999199,None,space,0.3548104999936186,None,P153,001,2025-04-11_14h22.11.999,posner_endo_new1,2024.2.4,60.13887268333119,2025-04-11 14h22.18.350387 +0100,
cube_l.png,0.1,0.31,invalid,37,37,0,down,8.746285900007933,None,space,0.38598769999225624,None,,,,,,,,,0,37,37,37,3354.258925099988,,,,,,,,,,,,,3354.243500599987,3354.258925099988,3354.258925099988,3354.258925099988,3363.019239299989,,,,3363.0408148999995,3363.0507682999887,3363.0507682999887,3363.083079899996,3363.0834367999923,3363.1000913999887,3363.1000913999887,3363.1000913999887,3363.1834218999866,3363.5005773999874,,,,,,,,,,,,,,,,,,,,,,down,8.746285900007933,None,space,0.38598769999225624,None,P153,001,2025-04-11_14h22.11.999,posner_endo_new1,2024.2.4,60.13887268333119,2025-04-11 14h22.18.350387 +0100,
cube_l.png,0.1,0.31,invalid,38,38,0,down,8.097456499992404,None,space,0.18997910000325646,None,,,,,,,,,0,38,38,38,3363.5161170999927,,,,,,,,,,,,,3363.5008713999996,3363.5161170999927,3363.5161170999927,3363.5161170999927,3371.6253762999986,,,,3371.6366063999885,3371.64680029999,3371.64680029999,3371.691317299992,3371.6916707999917,3371.7075280999998,3371.7075280999998,3371.7075280999998,3371.7908902999916,3371.908896299996,,,,,,,,,,,,,,,,,,,,,,down,8.097456499992404,None,space,0.18997910000325646,None,P153,001,2025-04-11_14h22.11.999,posner_endo_new1,2024.2.4,60.13887268333119,2025-04-11 14h22.18.350387 +0100,
cube_r.png,0.1,0.31,valid,39,39,0,down,8.121246899987455,None,space,0.30658580000454094,None,,,,,,,,,0,39,39,39,3371.9243156999873,,,,,,,,,,,,,3371.9091875999875,3371.9243156999873,3371.9243156999873,3371.9243156999873,3380.0504302999907,,,,3380.061700499995,3380.072114499999,3380.072114499999,3380.116002499999,3380.1163505999866,3380.132716799999,3380.132716799999,3380.132716799999,3380.2158312999964,3380.4499467999995,,,,,,,,,,,,,,,,,,,,,,down,8.121246899987455,None,space,0.30658580000454094,None,P153,001,2025-04-11_14h22.11.999,posner_endo_new1,2024.2.4,60.13887268333119,2025-04-11 14h22.18.350387 +0100,
cube_l.png,0.1,0.31,invalid,40,40,0,down,7.603876399996807,None,space,0.2923462000035215,None,,,,,,,,,0,40,40,40,3380.465218499987,,,,,,,,,,,,,3380.450241899991,3380.465218499987,3380.465218499987,3380.465218499987,3388.075685299991,,,,3388.086940399997,3388.0970932999917,3388.0970932999917,3388.1409642999934,3388.1413142999954,3388.157666999992,3388.157666999992,3388.157666999992,3388.240787399991,3388.458617899989,,,,,,,,,,,,,,,,,,,,,,down,7.603876399996807,None,space,0.2923462000035215,None,P153,001,2025-04-11_14h22.11.999,posner_endo_new1,2024.2.4,60.13887268333119,2025-04-11 14h22.18.350387 +0100,
cube_l.png,0.1,10,catch,41,41,0,down,7.579773799996474,None,None,,,,,,,,,,,0,41,41,41,3388.4737459999888,,,,,,,,,,,,,3388.4589175999863,3388.4737459999888,3388.4737459999888,3388.4737459999888,3396.0673970999924,,,,3396.0786066,3396.0889076999883,3396.0889076999883,3396.1330148999987,3396.1333726999874,3396.149158,3396.149158,3396.149158,3396.2329121999937,3399.1467097999994,,,,3398.2474029999867,3399.1631643999863,3399.1631643999863,3399.1631643999863,,,,,,,,,,,,,,,down,7.579773799996474,None,None,,,P153,001,2025-04-11_14h22.11.999,posner_endo_new1,2024.2.4,60.13887268333119,2025-04-11 14h22.18.350387 +0100,
cube_l.png,0.1,-0.31,valid,42,42,0,down,3.825610300002154,None,space,0.33774950000224635,None,,,,,,,,,0,42,42,42,3399.1631643999863,,,,,,,,,,,,,3399.147016099989,3399.1631643999863,3399.1631643999863,3399.1631643999863,3402.9936025999923,,,,3403.0031029999955,3403.013050399997,3403.013050399997,3403.0588486999914,3403.0591149999964,3403.075740699991,3403.075740699991,3403.075740699991,3403.159221199996,3403.426123099998,,,,,,,,,,,,,,,,,,,,,,down,3.825610300002154,None,space,0.33774950000224635,None,P153,001,2025-04-11_14h22.11.999,posner_endo_new1,2024.2.4,60.13887268333119,2025-04-11 14h22.18.350387 +0100,
cube_l.png,0.1,10,catch,43,43,0,down,6.8357353000028525,None,None,,,,,,,,,,,0,43,43,43,3403.441901299986,,,,,,,,,,,,,3403.4263265999907,3403.441901299986,3403.441901299986,3403.441901299986,3410.287499699989,,,,3410.3096282999904,3410.3220858999994,3410.3220858999994,3410.3517988999956,3410.3521499999915,3410.368271799991,3410.368271799991,3410.368271799991,3410.451155399991,3413.3659857999883,,,,3412.4657997999893,3413.381911599994,3413.381911599994,3413.381911599994,,,,,,,,,,,,,,,down,6.8357353000028525,None,None,,,P153,001,2025-04-11_14h22.11.999,posner_endo_new1,2024.2.4,60.13887268333119,2025-04-11 14h22.18.350387 +0100,
cube_l.png,0.1,0.31,invalid,44,44,0,down,3.8554245000123046,None,space,0.3963998000108404,None,,,,,,,,,0,44,44,44,3413.381911599994,,,,,,,,,,,,,3413.3662560999946,3413.381911599994,3413.381911599994,3413.381911599994,3417.245958499989,,,,3417.2546611,3417.264616299988,3417.264616299988,3417.311142499995,3417.3113951999985,3417.3281150999974,3417.3281150999974,3417.3281150999974,3417.410986799994,3417.7284618999984,,,,,,,,,,,,,,,,,,,,,,down,3.8554245000123046,None,space,0.3963998000108404,None,P153,001,2025-04-11_14h22.11.999,posner_endo_new1,2024.2.4,60.13887268333119,2025-04-11 14h22.18.350387 +0100,
cube_l.png,0.1,0.31,invalid,45,45,0,down,5.381221399991773,None,space,0.4065805999998702,None,,,,,,,,,0,45,45,45,3417.7441922,,,,,,,,,,,,,3417.7286576999904,3417.7441922,3417.7441922,3417.7441922,3423.1412397999957,,,,3423.1621431999956,3423.1723525999987,3423.1723525999987,3423.2049860999978,3423.2053831999947,3423.221405999997,3423.221405999997,3423.221405999997,3423.304795899996,3423.6389242999867,,,,,,,,,,,,,,,,,,,,,,down,5.381221399991773,None,space,0.4065805999998702,None,P153,001,2025-04-11_14h22.11.999,posner_endo_new1,2024.2.4,60.13887268333119,2025-04-11 14h22.18.350387 +0100,
cube_r.png,0.1,0.31,valid,46,46,0,down,5.774557900003856,None,space,0.3410408999916399,None,,,,,,,,,0,46,46,46,3423.6543459999957,,,,,,,,,,,,,3423.639257799994,3423.6543459999957,3423.6543459999957,3423.6543459999957,3429.4332690999872,,,,3429.4455989999988,3429.4557107,3429.4557107,3429.4984879999975,3429.4987599999877,3429.5150555,3429.5150555,3429.5150555,3429.59866779999,3429.8679315999907,,,,,,,,,,,,,,,,,,,,,,down,5.774557900003856,None,space,0.3410408999916399,None,P153,001,2025-04-11_14h22.11.999,posner_endo_new1,2024.2.4,60.13887268333119,2025-04-11 14h22.18.350387 +0100,
cube_l.png,0.1,-0.31,valid,47,47,0,down,5.619628900007228,None,space,0.5966259999986505,None,,,,,,,,,0,47,47,47,3429.881970599992,,,,,,,,,,,,,3429.8685314999893,3429.881970599992,3429.881970599992,3429.881970599992,3435.510083599991,,,,3435.5224735999946,3435.532540999993,3435.532540999993,3435.5763386999897,3435.577014399998,3435.5926661999983,3435.5926661999983,3435.5926661999983,3435.659283999994,3436.1945940999867,,,,,,,,,,,,,,,,,,,,,,down,5.619628900007228,None,space,0.5966259999986505,None,P153,001,2025-04-11_14h22.11.999,posner_endo_new1,2024.2.4,60.13887268333119,2025-04-11 14h22.18.350387 +0100,
cube_r.png,0.1,-0.31,invalid,48,48,0,down,4.892515300001833,None,space,0.4313574000116205,None,,,,,,,,,0,48,48,48,3436.2088099999964,,,,,,,,,,,,,3436.1952127999975,3436.2088099999964,3436.2088099999964,3436.2088099999964,3441.1064033999864,,,,3441.12863549999,3441.1392916999903,3441.1392916999903,3441.1697452999942,3441.1700886999897,3441.1866569999984,3441.1866569999984,3441.1866569999984,3441.2699649999995,3441.6207349999895,,,,,,,,,,,,,,,,,,,,,,down,4.892515300001833,None,space,0.4313574000116205,None,P153,001,2025-04-11_14h22.11.999,posner_endo_new1,2024.2.4,60.13887268333119,2025-04-11 14h22.18.350387 +0100,
cube_r.png,0.1,10,catch,49,49,0,down,6.297220100008417,None,space,0.3625784999894677,None,,,,,,,,,0,49,49,49,3441.6363780999964,,,,,,,,,,,,,3441.6210236999905,3441.6363780999964,3441.6363780999964,3441.6363780999964,3447.947569799988,,,,3447.9582915999927,3447.9686262999894,3447.9686262999894,3448.0131664999935,3448.0135082999914,3448.0299123999866,3448.0299123999866,3448.0299123999866,3448.1128563999955,3448.3965680999972,,,,,,,,,,,,,,,,,,,,,,down,6.297220100008417,None,space,0.3625784999894677,None,P153,001,2025-04-11_14h22.11.999,posner_endo_new1,2024.2.4,60.13887268333119,2025-04-11 14h22.18.350387 +0100,
cube_l.png,0.1,-0.31,valid,50,50,0,down,6.872923800008721,None,space,0.3766662999987602,None,,,,,,,,,0,50,50,50,3448.412612299988,,,,,,,,,,,,,3448.396755599999,3448.412612299988,3448.412612299988,3448.412612299988,3455.2912564,,,,3455.313365799986,3455.3253441999987,3455.3253441999987,3455.3548422999884,3455.3551765999873,3455.37170779999,3455.37170779999,3455.37170779999,3455.454715999993,3455.7563003999967,,,,,,,,,,,,,,,,,,,,,,down,6.872923800008721,None,space,0.3766662999987602,None,P153,001,2025-04-11_14h22.11.999,posner_endo_new1,2024.2.4,60.13887268333119,2025-04-11 14h22.18.350387 +0100,
cube_l.png,0.1,-0.31,valid,51,51,0,down,5.977216600003885,None,space,0.36365879999357276,None,,,,,,,,,0,51,51,51,3455.77179839999,,,,,,,,,,,,,3455.7565808999934,3455.77179839999,3455.77179839999,3455.77179839999,3461.750396599993,,,,3461.76132949999,3461.771409899986,3461.771409899986,3461.8158135999984,3461.816153599997,3461.83233759999,3461.83233759999,3461.83233759999,3461.9152784999897,3462.199734199996,,,,,,,,,,,,,,,,,,,,,,down,5.977216600003885,None,space,0.36365879999357276,None,P153,001,2025-04-11_14h22.11.999,posner_endo_new1,2024.2.4,60.13887268333119,2025-04-11 14h22.18.350387 +0100,
cube_r.png,0.1,-0.31,invalid,52,52,0,down,6.365687700003036,None,space,0.36950179999985266,None,,,,,,,,,0,52,52,52,3462.215087299992,,,,,,,,,,,,,3462.2000176,3462.215087299992,3462.215087299992,3462.215087299992,3468.5927954999934,,,,3468.6030926999956,3468.6132840999926,3468.6132840999926,3468.6589308999974,3468.6592676999862,3468.6754065999994,3468.6754065999994,3468.6754065999994,3468.7416371,3469.059020799992,,,,,,,,,,,,,,,,,,,,,,down,6.365687700003036,None,space,0.36950179999985266,None,P153,001,2025-04-11_14h22.11.999,posner_endo_new1,2024.2.4,60.13887268333119,2025-04-11 14h22.18.350387 +0100,
cube_l.png,0.1,-0.31,valid,53,53,0,down,8.250829700002214,None,space,0.3267327000066871,None,,,,,,,,,0,53,53,53,3469.074600299995,,,,,,,,,,,,,3469.0592999999935,3469.074600299995,3469.074600299995,3469.074600299995,3477.3342121999885,,,,3477.343260099995,3477.3531423999957,3477.3531423999957,3477.3999429999967,3477.4001852999936,3477.416334099995,3477.416334099995,3477.416334099995,3477.499713699988,3477.7501282999874,,,,,,,,,,,,,,,,,,,,,,down,8.250829700002214,None,space,0.3267327000066871,None,P153,001,2025-04-11_14h22.11.999,posner_endo_new1,2024.2.4,60.13887268333119,2025-04-11 14h22.18.350387 +0100,
cube_r.png,0.1,10,catch,54,54,0,down,3.151633400004357,None,None,,,,,,,,,,,0,54,54,54,3477.765537299987,,,,,,,,,,,,,3477.750318999999,3477.765537299987,3477.765537299987,3477.765537299987,3480.9302065999946,,,,3480.9366272999905,3480.948380899994,3480.948380899994,3480.9964736999973,3480.996712699998,3481.0125226999953,3481.0125226999953,3481.0125226999953,3481.079166299998,3484.0101402,,,,3483.0938390999945,3484.026223699999,3484.026223699999,3484.026223699999,,,,,,,,,,,,,,,down,3.151633400004357,None,None,,,P153,001,2025-04-11_14h22.11.999,posner_endo_new1,2024.2.4,60.13887268333119,2025-04-11 14h22.18.350387 +0100,
cube_l.png,0.1,0.31,invalid,55,55,0,down,2.019149700005073,None,space,0.42275330000848044,None,,,,,,,,,0,55,55,55,3484.026223699999,,,,,,,,,,,,,3484.010300599999,3484.026223699999,3484.026223699999,3484.026223699999,3486.0600534999976,,,,3486.082421999992,3486.0946597,3486.0946597,3486.123928999994,3486.1243273,3486.1403281999956,3486.1403281999956,3486.1403281999956,3486.2237468999956,3486.5745057999884,,,,,,,,,,,,,,,,,,,,,,down,2.019149700005073,None,space,0.42275330000848044,None,P153,001,2025-04-11_14h22.11.999,posner_endo_new1,2024.2.4,60.13887268333119,2025-04-11 14h22.18.350387 +0100,
cube_l.png,0.1,-0.31,valid,56,56,0,down,6.455059500003699,None,space,0.38624520000303164,None,,,,,,,,,0,56,56,56,3486.5904305000004,,,,,,,,,,,,,3486.5748341,3486.5904305000004,3486.5904305000004,3486.5904305000004,3493.0513962999976,,,,3493.063907699994,3493.073944299991,3493.073944299991,3493.1167028999917,3493.117092799992,3493.1331703999895,3493.1331703999895,3493.1331703999895,3493.2164601999975,3493.5340948999947,,,,,,,,,,,,,,,,,,,,,,down,6.455059500003699,None,space,0.38624520000303164,None,P153,001,2025-04-11_14h22.11.999,posner_endo_new1,2024.2.4,60.13887268333119,2025-04-11 14h22.18.350387 +0100,
cube_r.png,0.1,0.31,valid,57,57,0,down,7.20768209999369,None,space,0.32407319999765605,None,,,,,,,,,0,57,57,57,3493.5494225,,,,,,,,,,,,,3493.5344361999887,3493.5494225,3493.5494225,3493.5494225,3500.7601324999996,,,,3500.772457199986,3500.7825263999985,3500.7825263999985,3500.8255028999993,3500.825894099995,3500.841953199997,3500.841953199997,3500.841953199997,3500.925185699991,3501.1763322999905,,,,,,,,,,,,,,,,,,,,,,down,7.20768209999369,None,space,0.32407319999765605,None,P153,001,2025-04-11_14h22.11.999,posner_endo_new1,2024.2.4,60.13887268333119,2025-04-11 14h22.18.350387 +0100,
cube_r.png,0.1,-0.31,invalid,58,58,0,down,6.901705700001912,None,space,1.2996349000022747,None,,,,,,,,,0,58,58,58,3501.1917754999886,,,,,,,,,,,,,3501.176661099991,3501.1917754999886,3501.1917754999886,3501.1917754999886,3508.102497499989,,,,3508.1149891999958,3508.125450199994,3508.125450199994,3508.1682329999894,3508.1684984999883,3508.1850912999944,3508.1850912999944,3508.1850912999944,3508.267814199993,3509.5010159999947,,,,,,,,,,,,,,,,,,,,,,down,6.901705700001912,None,space,1.2996349000022747,None,P153,001,2025-04-11_14h22.11.999,posner_endo_new1,2024.2.4,60.13887268333119,2025-04-11 14h22.18.350387 +0100,
cube_l.png,0.1,0.31,invalid,59,59,0,down,7.360075100004906,None,space,0.32693660000222735,None,,,,,,,,,0,59,59,59,3509.516966799987,,,,,,,,,,,,,3509.501225999993,3509.516966799987,3509.516966799987,3509.516966799987,3516.893741599997,,,,3516.903067499996,3516.9127960999904,3516.9127960999904,3516.9597316,3516.960407499995,3516.9760446999862,3516.9760446999862,3516.9760446999862,3517.0593539999973,3517.3114328999945,,,,,,,,,,,,,,,,,,,,,,down,7.360075100004906,None,space,0.32693660000222735,None,P153,001,2025-04-11_14h22.11.999,posner_endo_new1,2024.2.4,60.13887268333119,2025-04-11 14h22.18.350387 +0100,
