cue_img,cue_soa,target_x,trial,thisN,thisTrialN,thisRepN,key_control2.keys,key_control2.rt,key_control2.duration,key_resp.keys,key_resp.rt,key_resp.duration,practice.thisRepN,practice.thisTrialN,practice.thisN,practice.thisIndex,block1.thisRepN,block1.thisTrialN,block1.thisN,block1.thisIndex,block2.thisRepN,block2.thisTrialN,block2.thisN,block2.thisIndex,thisRow.t,notes,instructions.started,instructions_txt.started,key_control.started,instructions.stopped,key_control.keys,key_control.rt,key_control.duration,ready.started,ready_txt.started,ready_txt.stopped,ready.stopped,fix.started,fixation.started,key_control2.started,fixation_cross.started,fix.stopped,practice.key_control2.keys,practice.key_control2.rt,practice.key_control2.duration,cue.started,cube.started,fixation_cross_cue.started,cue.stopped,target.started,fixation_target.started,fixation_cross_target.started,key_resp.started,star.started,star.stopped,fixation_target.stopped,fixation_cross_target.stopped,key_resp.stopped,target.stopped,practice.key_resp.keys,practice.key_resp.rt,practice.key_resp.duration,block1.key_control2.keys,block1.key_control2.rt,block1.key_control2.duration,block1.key_resp.keys,block1.key_resp.rt,block1.key_resp.duration,break_2.started,text.started,key_control3.started,text.stopped,break_2.stopped,key_control3.keys,key_control3.rt,key_control3.duration,block2.key_control2.keys,block2.key_control2.rt,block2.key_control2.duration,block2.key_resp.keys,block2.key_resp.rt,block2.key_resp.duration,participant,session,date,expName,psychopyVersion,frameRate,expStart,
,,,,,,,,,,,,,,,,,,,,,,,,,,,0.007358100003330037,0.029302099996129982,0.029302099996129982,1002.8741178999917,up,1002.827036600007,None,,,,,,,,,,,,,,,,,,,,,,,,,,,,,,,,,,,,,,,,,,,,,,,,,,P154,001,2025-04-11_15h44.05.390,posner_endo_new1,2024.2.4,59.992788865995806,2025-04-11 15h44.11.931852 +0100,
,,,,,,,,,,,,,,,,,,,,,,,,,,,,,,,,,,1002.8741974000004,1002.8889896000037,1005.8890611999959,1005.8698339999974,,,,,,,,,,,,,,,,,,,,,,,,,,,,,,,,,,,,,,,,,,,,,,P154,001,2025-04-11_15h44.05.390,posner_endo_new1,2024.2.4,59.992788865995806,2025-04-11 15h44.11.931852 +0100,
cube_r.png,0.1,10,catch,0,0,0,down,15.839136100010364,None,None,,,0,0,0,3,,,,,,,,,1005.8890611999959,,,,,,,,,,,,,1005.8772606999992,1005.8890611999959,1005.8890611999959,1005.8890611999959,1021.7375208000012,down,15.839136100010364,None,1021.7512869999919,1021.7618866999983,1021.7618866999983,1021.8033006000041,1021.8035607999918,1021.8196183999971,1021.8196183999971,1021.8196183999971,1021.9029900000023,1023.9176139000047,1024.8333720999944,1024.8333720999944,1024.8333720999944,1024.8172587000008,None,,,,,,,,,,,,,,,,,,,,,,,P154,001,2025-04-11_15h44.05.390,posner_endo_new1,2024.2.4,59.992788865995806,2025-04-11 15h44.11.931852 +0100,
cube_l.png,0.1,-0.31,valid,1,1,0,down,1.0149184000038076,None,space,0.421043299997109,None,0,1,1,0,,,,,,,,,1024.8333720999944,,,,,,,,,,,,,1024.817421899992,1024.8333720999944,1024.8333720999944,1024.8333720999944,1025.8500341000035,down,1.0149184000038076,None,1025.858374599993,1025.868659700005,1025.868659700005,1025.9156034000043,1025.916143800001,1025.9320318999962,1025.9320318999962,1025.9320318999962,1026.015306100002,,,,,1026.3667840999988,space,0.421043299997109,None,,,,,,,,,,,,,,,,,,,,,P154,001,2025-04-11_15h44.05.390,posner_endo_new1,2024.2.4,59.992788865995806,2025-04-11 15h44.11.931852 +0100,
cube_r.png,0.1,-0.31,invalid,2,2,0,down,2.2900576000101864,None,space,0.40657190000638366,None,0,2,2,6,,,,,,,,,1026.381580500005,,,,,,,,,,,,,1026.367214400001,1026.381580500005,1026.381580500005,1026.381580500005,1028.6805258999957,down,2.2900576000101864,None,1028.6910988000018,1028.7006407000008,1028.7006407000008,1028.7460871999938,1028.7463441,1028.7627229999925,1028.7627229999925,1028.7627229999925,1028.8458990999934,,,,,1029.179663300005,space,0.40657190000638366,None,,,,,,,,,,,,,,,,,,,,,P154,001,2025-04-11_15h44.05.390,posner_endo_new1,2024.2.4,59.992788865995806,2025-04-11 15h44.11.931852 +0100,
cube_l.png,0.1,-0.31,valid,3,3,0,down,2.2927308999933302,None,space,0.4747365999937756,None,0,3,3,4,,,,,,,,,1029.195452,,,,,,,,,,,,,1029.1798529999942,1029.195452,1029.195452,1029.195452,1031.4938459999976,down,2.2927308999933302,None,1031.5004671999923,1031.5121700000018,1031.5121700000018,1031.559872999991,1031.5601273999928,1031.5764223000006,1031.5764223000006,1031.5764223000006,1031.642949599991,,,,,1032.060092700005,space,0.4747365999937756,None,,,,,,,,,,,,,,,,,,,,,P154,001,2025-04-11_15h44.05.390,posner_endo_new1,2024.2.4,59.992788865995806,2025-04-11 15h44.11.931852 +0100,
cube_l.png,0.1,0.31,invalid,4,4,0,down,4.579696300002979,None,space,0.4910988999909023,None,0,4,4,1,,,,,,,,,1032.0760636999912,,,,,,,,,,,,,1032.0602770999976,1032.0760636999912,1032.0760636999912,1032.0760636999912,1036.6724431000039,down,4.579696300002979,None,1036.6836489999987,1036.6936405000015,1036.6936405000015,1036.7379952999909,1036.738367900005,1036.7545597999997,1036.7545597999997,1036.7545597999997,1036.837921600003,,,,,1037.2547504999966,space,0.4910988999909023,None,,,,,,,,,,,,,,,,,,,,,P154,001,2025-04-11_15h44.05.390,posner_endo_new1,2024.2.4,59.992788865995806,2025-04-11 15h44.11.931852 +0100,
cube_l.png,0.1,-0.31,valid,5,5,0,down,5.433041799988132,None,space,0.45271599999978207,None,0,5,5,8,,,,,,,,,1037.2706363000034,,,,,,,,,,,,,1037.2549247999996,1037.2706363000034,1037.2706363000034,1037.2706363000034,1042.7159542000009,down,5.433041799988132,None,1042.7221815999947,1042.7335237999941,1042.7335237999941,1042.7815063000016,1042.7819965999952,1042.797927099993,1042.797927099993,1042.797927099993,1042.8811782999983,,,,,1043.2657247000025,space,0.45271599999978207,None,,,,,,,,,,,,,,,,,,,,,P154,001,2025-04-11_15h44.05.390,posner_endo_new1,2024.2.4,59.992788865995806,2025-04-11 15h44.11.931852 +0100,
cube_r.png,0.1,-0.31,invalid,6,6,0,down,3.847828700003447,None,space,0.44719059999624733,None,0,6,6,9,,,,,,,,,1043.2807477000024,,,,,,,,,,,,,1043.2660858000017,1043.2807477000024,1043.2807477000024,1043.2807477000024,1047.1450964999967,down,3.847828700003447,None,1047.1546961999993,1047.1649728000048,1047.1649728000048,1047.2106695999973,1047.2110033999925,1047.227150599996,1047.227150599996,1047.227150599996,1047.3103310000006,,,,,1047.6776922999998,space,0.44719059999624733,None,,,,,,,,,,,,,,,,,,,,,P154,001,2025-04-11_15h44.05.390,posner_endo_new1,2024.2.4,59.992788865995806,2025-04-11 15h44.11.931852 +0100,
cube_r.png,0.1,0.31,valid,7,7,0,down,6.650640099993325,None,space,0.26730120000138413,None,0,7,7,7,,,,,,,,,1047.693273900004,,,,,,,,,,,,,1047.6779387999995,1047.693273900004,1047.693273900004,1047.693273900004,1054.3542659999948,down,6.650640099993325,None,1054.3637569999992,1054.374043399992,1054.374043399992,1054.4198853999987,1054.4202206000045,1054.4363947999955,1054.4363947999955,1054.4363947999955,1054.5195554999955,,,,,1054.7205964000023,space,0.26730120000138413,None,,,,,,,,,,,,,,,,,,,,,P154,001,2025-04-11_15h44.05.390,posner_endo_new1,2024.2.4,59.992788865995806,2025-04-11 15h44.11.931852 +0100,
cube_r.png,0.1,-0.31,invalid,8,8,0,down,5.59912539999641,None,space,0.3724579999980051,None,0,8,8,2,,,,,,,,,1054.7360501999938,,,,,,,,,,,,,1054.720856400003,1054.7360501999938,1054.7360501999938,1054.7360501999938,1060.3481518000044,down,5.59912539999641,None,1060.3576197999937,1060.3679282999947,1060.3679282999947,1060.413732999994,1060.414079299997,1060.4303444999969,1060.4303444999969,1060.4303444999969,1060.5134468000033,,,,,1060.8142518999957,space,0.3724579999980051,None,,,,,,,,,,,,,,,,,,,,,P154,001,2025-04-11_15h44.05.390,posner_endo_new1,2024.2.4,59.992788865995806,2025-04-11 15h44.11.931852 +0100,
cube_l.png,0.1,0.31,invalid,9,9,0,down,6.233828500000527,None,space,0.3934953999996651,None,0,9,9,5,,,,,,,,,1060.8296128999937,,,,,,,,,,,,,1060.8145020999946,1060.8296128999937,1060.8296128999937,1060.8296128999937,1067.0745060999907,down,6.233828500000527,None,1067.083951099994,1067.0942601999996,1067.0942601999996,1067.1399303999933,1067.1402855999913,1067.1567596999957,1067.1567596999957,1067.1567596999957,1067.2399151999998,,,,,1067.5572687999957,space,0.3934953999996651,None,,,,,,,,,,,,,,,,,,,,,P154,001,2025-04-11_15h44.05.390,posner_endo_new1,2024.2.4,59.992788865995806,2025-04-11 15h44.11.931852 +0100,
cube_r.png,0.1,0.31,valid,10,10,0,down,5.378936600012821,None,space,0.40495750000991393,None,0,10,10,10,,,,,,,,,1067.572924299995,,,,,,,,,,,,,1067.557515099994,1067.572924299995,1067.572924299995,1067.572924299995,1072.9686111000046,down,5.378936600012821,None,1072.978112900004,1072.988402899995,1072.988402899995,1073.034207299992,1073.0345388999995,1073.0506237999944,1073.0506237999944,1073.0506237999944,1073.1341367999994,,,,,1073.4681406000018,space,0.40495750000991393,None,,,,,,,,,,,,,,,,,,,,,P154,001,2025-04-11_15h44.05.390,posner_endo_new1,2024.2.4,59.992788865995806,2025-04-11 15h44.11.931852 +0100,
,,,,,,,,,,,,,,,,,,,,,,,,,,,,,,,,,,1073.468307499992,1073.4837268999981,1076.500799699992,1076.464380599995,,,,,,,,,,,,,,,,,,,,,,,,,,,,,,,,,,,,,,,,,,,,,,P154,001,2025-04-11_15h44.05.390,posner_endo_new1,2024.2.4,59.992788865995806,2025-04-11 15h44.11.931852 +0100,
cube_l.png,0.1,10,catch,0,0,0,down,22.88272730000608,None,None,,,,,,,0,0,0,0,,,,,1076.500799699992,,,,,,,,,,,,,1076.4902520000032,1076.500799699992,1076.500799699992,1076.500799699992,1099.393428299998,,,,1099.4161680999969,1099.4284976999916,1099.4284976999916,1099.456675399997,1099.4571024000034,1099.473795400001,1099.473795400001,1099.473795400001,1099.5570029999944,1101.571664499992,1102.487400900005,1102.487400900005,1102.487400900005,1102.4721426000033,,,,down,22.88272730000608,None,None,,,,,,,,,,,,,,,,,P154,001,2025-04-11_15h44.05.390,posner_endo_new1,2024.2.4,59.992788865995806,2025-04-11 15h44.11.931852 +0100,
cube_l.png,0.1,10,catch,1,1,0,down,4.871929000000819,None,None,,,,,,,0,1,1,1,,,,,1102.487400900005,,,,,,,,,,,,,1102.472704899992,1102.487400900005,1102.487400900005,1102.487400900005,1107.3682208999962,,,,1107.3905080999975,1107.4028975999972,1107.4028975999972,1107.4320137000032,1107.4324947999994,1107.448464400004,1107.448464400004,1107.448464400004,1107.5317053000035,1109.5463055,1110.4620533999987,1110.4620533999987,1110.4620533999987,1110.4463647999946,,,,down,4.871929000000819,None,None,,,,,,,,,,,,,,,,,P154,001,2025-04-11_15h44.05.390,posner_endo_new1,2024.2.4,59.992788865995806,2025-04-11 15h44.11.931852 +0100,
cube_l.png,0.1,0.31,invalid,2,2,0,down,2.513251100011985,None,space,0.37777409999398515,None,,,,,0,2,2,2,,,,,1110.4620533999987,,,,,,,,,,,,,1110.4467267,1110.4620533999987,1110.4620533999987,1110.4620533999987,1112.9778350999986,,,,1112.9915826999932,1113.0021037999977,1113.0021037999977,1113.0429655000044,1113.0434452000045,1113.0593274999992,1113.0593274999992,1113.0593274999992,1113.1426242000016,,,,,1113.443991799999,,,,down,2.513251100011985,None,space,0.37777409999398515,None,,,,,,,,,,,,,,,P154,001,2025-04-11_15h44.05.390,posner_endo_new1,2024.2.4,59.992788865995806,2025-04-11 15h44.11.931852 +0100,
cube_l.png,0.1,0.31,invalid,3,3,0,down,3.1165619999956107,None,space,0.41452570000546984,None,,,,,0,3,3,3,,,,,1113.4589692000009,,,,,,,,,,,,,1113.4443787999917,1113.4589692000009,1113.4589692000009,1113.4589692000009,1116.590549600005,,,,1116.5999728000024,1116.6102058999968,1116.6102058999968,1116.6561794000008,1116.656515900002,1116.6727222999907,1116.6727222999907,1116.6727222999907,1116.7559722000005,,,,,1117.090211200004,,,,down,3.1165619999956107,None,space,0.41452570000546984,None,,,,,,,,,,,,,,,P154,001,2025-04-11_15h44.05.390,posner_endo_new1,2024.2.4,59.992788865995806,2025-04-11 15h44.11.931852 +0100,
cube_l.png,0.1,-0.31,valid,4,4,0,down,5.605793100010487,None,space,0.47541389999969397,None,,,,,0,4,4,4,,,,,1117.1056358999922,,,,,,,,,,,,,1117.0904735999939,1117.1056358999922,1117.1056358999922,1117.1056358999922,1122.7176760000002,,,,1122.7272818999918,1122.7375498000038,1122.7375498000038,1122.7832734999974,1122.7836105000024,1122.7997366999916,1122.7997366999916,1122.7997366999916,1122.883065899994,,,,,1123.2837828000047,,,,down,5.605793100010487,None,space,0.47541389999969397,None,,,,,,,,,,,,,,,P154,001,2025-04-11_15h44.05.390,posner_endo_new1,2024.2.4,59.992788865995806,2025-04-11 15h44.11.931852 +0100,
cube_r.png,0.1,-0.31,invalid,5,5,0,down,4.020423499998287,None,space,0.3898382000043057,None,,,,,0,5,5,5,,,,,1123.299463000003,,,,,,,,,,,,,1123.2840473999968,1123.299463000003,1123.299463000003,1123.299463000003,1127.3295605000021,,,,1127.3389363000024,1127.3492785999988,1127.3492785999988,1127.3953569000005,1127.3956906999956,1127.4117685999954,1127.4117685999954,1127.4117685999954,1127.494890899994,,,,,1127.8124278000032,,,,down,4.020423499998287,None,space,0.3898382000043057,None,,,,,,,,,,,,,,,P154,001,2025-04-11_15h44.05.390,posner_endo_new1,2024.2.4,59.992788865995806,2025-04-11 15h44.11.931852 +0100,
cube_r.png,0.1,0.31,valid,6,6,0,down,2.8682977000134997,None,space,0.4553548999974737,None,,,,,0,6,6,6,,,,,1127.827962299998,,,,,,,,,,,,,1127.812694399996,1127.827962299998,1127.827962299998,1127.827962299998,1130.7093669000024,,,,1130.718736900002,1130.7290539999958,1130.7290539999958,1130.7750654999982,1130.775409199996,1130.791555399992,1130.791555399992,1130.791555399992,1130.8748767999932,,,,,1131.259024999992,,,,down,2.8682977000134997,None,space,0.4553548999974737,None,,,,,,,,,,,,,,,P154,001,2025-04-11_15h44.05.390,posner_endo_new1,2024.2.4,59.992788865995806,2025-04-11 15h44.11.931852 +0100,
cube_r.png,0.1,-0.31,invalid,7,7,0,down,5.085272199998144,None,space,0.3910533000016585,None,,,,,0,7,7,7,,,,,1131.2744363999955,,,,,,,,,,,,,1131.2592860000004,1131.2744363999955,1131.2744363999955,1131.2744363999955,1136.370324699994,,,,1136.3797433,1136.390045299995,1136.390045299995,1136.4360293999925,1136.4363703999989,1136.4524475999933,1136.4524475999933,1136.4524475999933,1136.5356113000016,,,,,1136.8530592000025,,,,down,5.085272199998144,None,space,0.3910533000016585,None,,,,,,,,,,,,,,,P154,001,2025-04-11_15h44.05.390,posner_endo_new1,2024.2.4,59.992788865995806,2025-04-11 15h44.11.931852 +0100,
cube_l.png,0.1,-0.31,valid,8,8,0,down,4.810661800001981,None,space,0.3652226999984123,None,,,,,0,8,8,8,,,,,1136.8687817000027,,,,,,,,,,,,,1136.853321699993,1136.8687817000027,1136.8687817000027,1136.8687817000027,1141.6814902000042,,,,1141.6877860999957,1141.6994452999934,1141.6994452999934,1141.7471760999906,1141.7474217999988,1141.7637006000004,1141.7637006000004,1141.7637006000004,1141.846965699995,,,,,1142.1309414999996,,,,down,4.810661800001981,None,space,0.3652226999984123,None,,,,,,,,,,,,,,,P154,001,2025-04-11_15h44.05.390,posner_endo_new1,2024.2.4,59.992788865995806,2025-04-11 15h44.11.931852 +0100,
cube_r.png,0.1,-0.31,invalid,9,9,0,down,5.452527999994345,None,space,0.4004317000071751,None,,,,,0,9,9,9,,,,,1142.1467806,,,,,,,,,,,,,1142.1311283999967,1142.1467806,1142.1467806,1142.1467806,1147.6084337999928,,,,1147.6147857000033,1147.6264405999973,1147.6264405999973,1147.674436100002,1147.6746839999978,1147.6910036999907,1147.6910036999907,1147.6910036999907,1147.7575658999995,,,,,1148.1081062000012,,,,down,5.452527999994345,None,space,0.4004317000071751,None,,,,,,,,,,,,,,,P154,001,2025-04-11_15h44.05.390,posner_endo_new1,2024.2.4,59.992788865995806,2025-04-11 15h44.11.931852 +0100,
cube_l.png,0.1,0.31,invalid,10,10,0,down,6.947784499992849,None,space,0.4553818999993382,None,,,,,0,10,10,10,,,,,1148.1239410999988,,,,,,,,,,,,,1148.1082877000008,1148.1239410999988,1148.1239410999988,1148.1239410999988,1155.0842979000008,,,,1155.090666899996,1155.1022628999926,1155.1022628999926,1155.1500524000003,1155.1502995999908,1155.1667151000001,1155.1667151000001,1155.1667151000001,1155.2499147999915,,,,,1155.6336475999997,,,,down,6.947784499992849,None,space,0.4553818999993382,None,,,,,,,,,,,,,,,P154,001,2025-04-11_15h44.05.390,posner_endo_new1,2024.2.4,59.992788865995806,2025-04-11 15h44.11.931852 +0100,
cube_r.png,0.1,-0.31,invalid,11,11,0,down,5.158092800003942,None,space,0.37257629999658093,None,,,,,0,11,11,11,,,,,1155.6496559999941,,,,,,,,,,,,,1155.633830699997,1155.6496559999941,1155.6496559999941,1155.6496559999941,1160.8117959999945,,,,1160.8177937,1160.8294691999909,1160.8294691999909,1160.8776265999913,1160.8778737999965,1160.8939915999945,1160.8939915999945,1160.8939915999945,1160.9774506999966,,,,,1161.2779273999913,,,,down,5.158092800003942,None,space,0.37257629999658093,None,,,,,,,,,,,,,,,P154,001,2025-04-11_15h44.05.390,posner_endo_new1,2024.2.4,59.992788865995806,2025-04-11 15h44.11.931852 +0100,
cube_r.png,0.1,0.31,valid,12,12,0,down,5.897734199999832,None,space,0.40576660000078846,None,,,,,0,12,12,12,,,,,1161.2938485999912,,,,,,,,,,,,,1161.2781098999985,1161.2938485999912,1161.2938485999912,1161.2938485999912,1167.2054852,,,,1167.2149045999977,1167.2251354000036,1167.2251354000036,1167.2709714999946,1167.2713051000028,1167.2874547999963,1167.2874547999963,1167.2874547999963,1167.3707435999968,,,,,1167.7050092999998,,,,down,5.897734199999832,None,space,0.40576660000078846,None,,,,,,,,,,,,,,,P154,001,2025-04-11_15h44.05.390,posner_endo_new1,2024.2.4,59.992788865995806,2025-04-11 15h44.11.931852 +0100,
cube_l.png,0.1,10,catch,13,13,0,down,6.326883899993845,None,None,,,,,,,0,13,13,13,,,,,1167.7204907999985,,,,,,,,,,,,,1167.7052813999908,1167.7204907999985,1167.7204907999985,1167.7204907999985,1174.0487122999912,,,,1174.058180299995,1174.0685289999965,1174.0685289999965,1174.1141613999935,1174.114499599993,1174.1306348999933,1174.1306348999933,1174.1306348999933,1174.2138813999918,1176.2285827000014,1177.1442198000004,1177.1442198000004,1177.1442198000004,1177.1281187999994,,,,down,6.326883899993845,None,None,,,,,,,,,,,,,,,,,P154,001,2025-04-11_15h44.05.390,posner_endo_new1,2024.2.4,59.992788865995806,2025-04-11 15h44.11.931852 +0100,
cube_r.png,0.1,-0.31,invalid,14,14,0,down,1.9838034999993397,None,space,0.3774593999987701,None,,,,,0,14,14,14,,,,,1177.1442198000004,,,,,,,,,,,,,1177.1283674000006,1177.1442198000004,1177.1442198000004,1177.1442198000004,1179.143208399997,,,,1179.1526111999992,1179.1630372999934,1179.1630372999934,1179.2088390999998,1179.2091799999907,1179.225421199997,1179.225421199997,1179.225421199997,1179.3085460000002,,,,,1179.6092688999925,,,,down,1.9838034999993397,None,space,0.3774593999987701,None,,,,,,,,,,,,,,,P154,001,2025-04-11_15h44.05.390,posner_endo_new1,2024.2.4,59.992788865995806,2025-04-11 15h44.11.931852 +0100,
cube_l.png,0.1,-0.31,valid,15,15,0,down,4.350733200000832,None,space,0.4950574999966193,None,,,,,0,15,15,15,,,,,1179.6249380999943,,,,,,,,,,,,,1179.6095348999952,1179.6249380999943,1179.6249380999943,1179.6249380999943,1183.9882613999944,,,,1183.9977845999965,1184.008117099991,1184.008117099991,1184.0538755000016,1184.054207699999,1184.0704079999996,1184.0704079999996,1184.0704079999996,1184.153572299998,,,,,1184.5708490999968,,,,down,4.350733200000832,None,space,0.4950574999966193,None,,,,,,,,,,,,,,,P154,001,2025-04-11_15h44.05.390,posner_endo_new1,2024.2.4,59.992788865995806,2025-04-11 15h44.11.931852 +0100,
cube_r.png,0.1,10,catch,16,16,0,down,4.372715100005735,None,None,,,,,,,0,16,16,16,,,,,1184.586492100003,,,,,,,,,,,,,1184.5711187999987,1184.586492100003,1184.586492100003,1184.586492100003,1188.9663480000017,,,,1188.975814599995,1188.9862850999925,1188.9862850999925,1189.032247199997,1189.0325827999914,1189.048643599992,1189.048643599992,1189.048643599992,1189.1318461999908,1191.1465910999977,1192.0621798999928,1192.0621798999928,1192.0621798999928,1192.0461810999986,,,,down,4.372715100005735,None,None,,,,,,,,,,,,,,,,,P154,001,2025-04-11_15h44.05.390,posner_endo_new1,2024.2.4,59.992788865995806,2025-04-11 15h44.11.931852 +0100,
cube_r.png,0.1,10,catch,17,17,0,down,2.5372273000102723,None,None,,,,,,,0,17,17,17,,,,,1192.0621798999928,,,,,,,,,,,,,1192.046427399997,1192.0621798999928,1192.0621798999928,1192.0621798999928,1194.6107075000036,,,,1194.6198447999923,1194.6296785000013,1194.6296785000013,1194.6764243999933,1194.6766710999946,1194.6930237999914,1194.6930237999914,1194.6930237999914,1194.7761653999914,1196.7907200999907,1197.7066068999993,1197.7066068999993,1197.7066068999993,1197.6903714999935,,,,down,2.5372273000102723,None,None,,,,,,,,,,,,,,,,,P154,001,2025-04-11_15h44.05.390,posner_endo_new1,2024.2.4,59.992788865995806,2025-04-11 15h44.11.931852 +0100,
cube_l.png,0.1,0.31,invalid,18,18,0,down,3.4694115000020247,None,space,0.44591639999998733,None,,,,,0,18,18,18,,,,,1197.7066068999993,,,,,,,,,,,,,1197.6905421999982,1197.7066068999993,1197.7066068999993,1197.7066068999993,1201.1869874999975,,,,1201.1933508999937,1201.2050046999939,1201.2050046999939,1201.252874800004,1201.2534260999964,1201.2692644999916,1201.2692644999916,1201.2692644999916,1201.3525467,,,,,1201.720870899997,,,,down,3.4694115000020247,None,space,0.44591639999998733,None,,,,,,,,,,,,,,,P154,001,2025-04-11_15h44.05.390,posner_endo_new1,2024.2.4,59.992788865995806,2025-04-11 15h44.11.931852 +0100,
cube_l.png,0.1,10,catch,19,19,0,down,6.728142899999511,None,None,,,,,,,0,19,19,19,,,,,1201.7354790999962,,,,,,,,,,,,,1201.721329699998,1201.7354790999962,1201.7354790999962,1201.7354790999962,1208.4800340999936,,,,1208.4912152000034,1208.5011868000001,1208.5011868000001,1208.5454138999921,1208.5457958000043,1208.5619581999927,1208.5619581999927,1208.5619581999927,1208.6452026000043,1210.6597765000042,1211.5755331999972,1211.5755331999972,1211.5755331999972,1211.5596909000014,,,,down,6.728142899999511,None,None,,,,,,,,,,,,,,,,,P154,001,2025-04-11_15h44.05.390,posner_endo_new1,2024.2.4,59.992788865995806,2025-04-11 15h44.11.931852 +0100,
cube_l.png,0.1,0.31,invalid,20,20,0,down,2.536453499997151,None,space,0.4385079999919981,None,,,,,0,20,20,20,,,,,1211.5755331999972,,,,,,,,,,,,,1211.5599833000015,1211.5755331999972,1211.5755331999972,1211.5755331999972,1214.1241103999928,,,,1214.1353333000006,1214.1457405999972,1214.1457405999972,1214.1897903999925,1214.1901694999979,1214.2061795999907,1214.2061795999907,1214.2061795999907,1214.2894285999937,,,,,1214.6570802999922,,,,down,2.536453499997151,None,space,0.4385079999919981,None,,,,,,,,,,,,,,,P154,001,2025-04-11_15h44.05.390,posner_endo_new1,2024.2.4,59.992788865995806,2025-04-11 15h44.11.931852 +0100,
cube_l.png,0.1,-0.31,valid,21,21,0,down,7.063718699995661,None,space,0.48688660000334494,None,,,,,0,21,21,21,,,,,1214.6723098999937,,,,,,,,,,,,,1214.6573836000025,1214.6723098999937,1214.6723098999937,1214.6723098999937,1221.7496967000043,,,,1221.7608456000016,1221.7712933000003,1221.7712933000003,1221.8153122999938,1221.8156885999924,1221.8318024000037,1221.8318024000037,1221.8318024000037,1221.9150403999956,,,,,1222.332455900003,,,,down,7.063718699995661,None,space,0.48688660000334494,None,,,,,,,,,,,,,,,P154,001,2025-04-11_15h44.05.390,posner_endo_new1,2024.2.4,59.992788865995806,2025-04-11 15h44.11.931852 +0100,
cube_r.png,0.1,0.31,valid,22,22,0,down,6.740938799994183,None,space,0.5861532999988412,None,,,,,0,22,22,22,,,,,1222.3478653999919,,,,,,,,,,,,,1222.3327701999951,1222.3478653999919,1222.3478653999919,1222.3478653999919,1229.0922072999965,,,,1229.1035242999933,1229.113924499994,1229.113924499994,1229.1577236000012,1229.158100200002,1229.1742616999982,1229.1742616999982,1229.1742616999982,1229.2573163999914,,,,,1229.7748677999916,,,,down,6.740938799994183,None,space,0.5861532999988412,None,,,,,,,,,,,,,,,P154,001,2025-04-11_15h44.05.390,posner_endo_new1,2024.2.4,59.992788865995806,2025-04-11 15h44.11.931852 +0100,
cube_r.png,0.1,-0.31,invalid,23,23,0,down,2.3051798999949824,None,space,0.5040750999905868,None,,,,,0,23,23,23,,,,,1229.7902538999915,,,,,,,,,,,,,1229.7751684999967,1229.7902538999915,1229.7902538999915,1229.7902538999915,1232.1053071999922,,,,1232.112454400005,1232.1240514999954,1232.1240514999954,1232.171360799999,1232.1716379999998,1232.1876899999916,1232.1876899999916,1232.1876899999916,1232.2709254999936,,,,,1232.704832599993,,,,down,2.3051798999949824,None,space,0.5040750999905868,None,,,,,,,,,,,,,,,P154,001,2025-04-11_15h44.05.390,posner_endo_new1,2024.2.4,59.992788865995806,2025-04-11 15h44.11.931852 +0100,
cube_r.png,0.1,0.31,valid,24,24,0,down,6.014842899996438,None,space,0.3903520000021672,None,,,,,0,24,24,24,,,,,1232.7205735000025,,,,,,,,,,,,,1232.7050390999939,1232.7205735000025,1232.7205735000025,1232.7205735000025,1238.7486250999937,,,,1238.7558649999992,1238.767288499992,1238.767288499992,1238.814476799991,1238.815029099991,1238.8308699999907,1238.8308699999907,1238.8308699999907,1238.9141155999969,,,,,1239.2323403000046,,,,down,6.014842899996438,None,space,0.3903520000021672,None,,,,,,,,,,,,,,,P154,001,2025-04-11_15h44.05.390,posner_endo_new1,2024.2.4,59.992788865995806,2025-04-11 15h44.11.931852 +0100,
cube_r.png,0.1,-0.31,invalid,25,25,0,down,5.616564299998572,None,space,0.4340017000067746,None,,,,,0,25,25,25,,,,,1239.2470837,,,,,,,,,,,,,1239.2328065000038,1239.2470837,1239.2470837,1239.2470837,1244.876060900002,,,,1244.8873894999997,1244.8977413999964,1244.8977413999964,1244.9415523999924,1244.9418279999954,1244.9581591000024,1244.9581591000024,1244.9581591000024,1245.0413259999914,,,,,1245.4084604999953,,,,down,5.616564299998572,None,space,0.4340017000067746,None,,,,,,,,,,,,,,,P154,001,2025-04-11_15h44.05.390,posner_endo_new1,2024.2.4,59.992788865995806,2025-04-11 15h44.11.931852 +0100,
cube_l.png,0.1,-0.31,valid,26,26,0,down,6.2957197000068845,None,space,0.3936249999969732,None,,,,,0,26,26,26,,,,,1245.4241187000007,,,,,,,,,,,,,1245.4086681999906,1245.4241187000007,1245.4241187000007,1245.4241187000007,1251.735345699999,,,,1251.7426288999995,1251.7656709000003,1251.7656709000003,1251.8012364000024,1251.8015107999963,1251.8176712999993,1251.8176712999993,1251.8176712999993,1251.9011056000018,,,,,1252.218174099995,,,,down,6.2957197000068845,None,space,0.3936249999969732,None,,,,,,,,,,,,,,,P154,001,2025-04-11_15h44.05.390,posner_endo_new1,2024.2.4,59.992788865995806,2025-04-11 15h44.11.931852 +0100,
cube_r.png,0.1,0.31,valid,27,27,0,down,6.8459563000069465,None,space,0.4071750000002794,None,,,,,0,27,27,27,,,,,1252.2339470000006,,,,,,,,,,,,,1252.2184007000033,1252.2339470000006,1252.2339470000006,1252.2339470000006,1259.0945397000032,,,,1259.1018048999977,1259.1131647000002,1259.1131647000002,1259.1603050999984,1259.1608575999999,1259.1767092999944,1259.1767092999944,1259.1767092999944,1259.2599618999957,,,,,1259.5948908999999,,,,down,6.8459563000069465,None,space,0.4071750000002794,None,,,,,,,,,,,,,,,P154,001,2025-04-11_15h44.05.390,posner_endo_new1,2024.2.4,59.992788865995806,2025-04-11 15h44.11.931852 +0100,
cube_r.png,0.1,10,catch,28,28,0,down,5.766247200008365,None,None,,,,,,,0,28,28,28,,,,,1259.609599599993,,,,,,,,,,,,,1259.5953554000007,1259.609599599993,1259.609599599993,1259.609599599993,1265.3883760000026,,,,1265.3996120999946,1265.4099997000012,1265.4099997000012,1265.4539058999944,1265.454281600003,1265.4703963999928,1265.4703963999928,1265.4703963999928,1265.5536569999967,1267.568319099999,1268.4839740000025,1268.4839740000025,1268.4839740000025,1268.4680072999909,,,,down,5.766247200008365,None,None,,,,,,,,,,,,,,,,,P154,001,2025-04-11_15h44.05.390,posner_endo_new1,2024.2.4,59.992788865995806,2025-04-11 15h44.11.931852 +0100,
cube_r.png,0.1,0.31,valid,29,29,0,down,3.4915904000081355,None,space,0.38647860000492074,None,,,,,0,29,29,29,,,,,1268.4839740000025,,,,,,,,,,,,,1268.4682889999967,1268.4839740000025,1268.4839740000025,1268.4839740000025,1271.9816908999928,,,,1271.9916186999908,1272.001502500003,1272.001502500003,1272.0471085000027,1272.0473713999963,1272.0637148999958,1272.0637148999958,1272.0637148999958,1272.1470268999983,,,,,1272.464346199995,,,,down,3.4915904000081355,None,space,0.38647860000492074,None,,,,,,,,,,,,,,,P154,001,2025-04-11_15h44.05.390,posner_endo_new1,2024.2.4,59.992788865995806,2025-04-11 15h44.11.931852 +0100,
cube_r.png,0.1,0.31,valid,30,30,0,down,6.103264200006379,None,space,0.4096401999995578,None,,,,,0,30,30,30,,,,,1272.4800205999927,,,,,,,,,,,,,1272.4645439000014,1272.4800205999927,1272.4800205999927,1272.4800205999927,1278.5911239999987,,,,1278.597940199994,1278.609637200003,1278.609637200003,1278.6570881999942,1278.657358299999,1278.673541600001,1278.673541600001,1278.673541600001,1278.7568411999964,,,,,1279.0909413999907,,,,down,6.103264200006379,None,space,0.4096401999995578,None,,,,,,,,,,,,,,,P154,001,2025-04-11_15h44.05.390,posner_endo_new1,2024.2.4,59.992788865995806,2025-04-11 15h44.11.931852 +0100,
cube_l.png,0.1,-0.31,valid,31,31,0,down,5.7257859999954235,None,space,0.4484410000004573,None,,,,,0,31,31,31,,,,,1279.1063269000006,,,,,,,,,,,,,1279.0911395000003,1279.1063269000006,1279.1063269000006,1279.1063269000006,1284.8351743999956,,,,1284.8445960999961,1284.854952900001,1284.854952900001,1284.9006842999952,1284.9010284999968,1284.917336899991,1284.917336899991,1284.917336899991,1285.0004984999978,,,,,1285.3680804000032,,,,down,5.7257859999954235,None,space,0.4484410000004573,None,,,,,,,,,,,,,,,P154,001,2025-04-11_15h44.05.390,posner_endo_new1,2024.2.4,59.992788865995806,2025-04-11 15h44.11.931852 +0100,
cube_r.png,0.1,0.31,valid,32,32,0,down,7.520022299999255,None,space,0.5539343999989796,None,,,,,0,32,32,32,,,,,1285.383369499992,,,,,,,,,,,,,1285.3683431999962,1285.383369499992,1285.383369499992,1285.383369499992,1292.9101370999997,,,,1292.919564099997,1292.9299676999944,1292.9299676999944,1292.9758753999922,1292.9762085999973,1292.9921061999921,1292.9921061999921,1292.9921061999921,1293.0753317999915,,,,,1293.5594868000044,,,,down,7.520022299999255,None,space,0.5539343999989796,None,,,,,,,,,,,,,,,P154,001,2025-04-11_15h44.05.390,posner_endo_new1,2024.2.4,59.992788865995806,2025-04-11 15h44.11.931852 +0100,
cube_r.png,0.1,-0.31,invalid,33,33,0,down,5.9683356000023196,None,space,0.39760799999930896,None,,,,,0,33,33,33,,,,,1293.574991699992,,,,,,,,,,,,,1293.5597493999958,1293.574991699992,1293.574991699992,1293.574991699992,1299.553222699993,,,,1299.5626579999953,1299.5729619000049,1299.5729619000049,1299.6189435999986,1299.6192822000012,1299.635620400004,1299.635620400004,1299.635620400004,1299.7187693000014,,,,,1300.0362553000014,,,,down,5.9683356000023196,None,space,0.39760799999930896,None,,,,,,,,,,,,,,,P154,001,2025-04-11_15h44.05.390,posner_endo_new1,2024.2.4,59.992788865995806,2025-04-11 15h44.11.931852 +0100,
cube_r.png,0.1,10,catch,34,34,0,down,7.596159499997157,None,None,,,,,,,0,34,34,34,,,,,1300.0516576999944,,,,,,,,,,,,,1300.0365193000034,1300.0516576999944,1300.0516576999944,1300.0516576999944,1307.661733300003,,,,1307.671242700002,1307.6814247000002,1307.6814247000002,1307.7273752000037,1307.727721000003,1307.7440644000017,1307.7440644000017,1307.7440644000017,1307.8270892,1309.8415940999985,1310.757406100005,1310.757406100005,1310.757406100005,1310.7414773999917,,,,down,7.596159499997157,None,None,,,,,,,,,,,,,,,,,P154,001,2025-04-11_15h44.05.390,posner_endo_new1,2024.2.4,59.992788865995806,2025-04-11 15h44.11.931852 +0100,
cube_r.png,0.1,0.31,valid,35,35,0,down,3.9705959999992047,None,space,0.41079290000197943,None,,,,,0,35,35,35,,,,,1310.757406100005,,,,,,,,,,,,,1310.7417231,1310.757406100005,1310.757406100005,1310.757406100005,1314.7378671000042,,,,1314.7474256999994,1314.757704100004,1314.757704100004,1314.8034719999996,1314.8038077999954,1314.8199216999928,1314.8199216999928,1314.8199216999928,1314.9032139000046,,,,,1315.2372199999954,,,,down,3.9705959999992047,None,space,0.41079290000197943,None,,,,,,,,,,,,,,,P154,001,2025-04-11_15h44.05.390,posner_endo_new1,2024.2.4,59.992788865995806,2025-04-11 15h44.11.931852 +0100,
cube_r.png,0.1,-0.31,invalid,36,36,0,down,6.067166500011808,None,space,0.41034449999278877,None,,,,,0,36,36,36,,,,,1315.2527807000006,,,,,,,,,,,,,1315.2374882000004,1315.2527807000006,1315.2527807000006,1315.2527807000006,1321.3310222,,,,1321.3397534999967,1321.3496440000017,1321.3496440000017,1321.3967558000004,1321.3970147999935,1321.4133882000024,1321.4133882000024,1321.4133882000024,1321.4964704000013,,,,,1321.8303049999959,,,,down,6.067166500011808,None,space,0.41034449999278877,None,,,,,,,,,,,,,,,P154,001,2025-04-11_15h44.05.390,posner_endo_new1,2024.2.4,59.992788865995806,2025-04-11 15h44.11.931852 +0100,
cube_l.png,0.1,0.31,invalid,37,37,0,down,6.2574080000049435,None,space,0.4225583999941591,None,,,,,0,37,37,37,,,,,1321.8459738999954,,,,,,,,,,,,,1321.830489,1321.8459738999954,1321.8459738999954,1321.8459738999954,1328.1071478999947,,,,1328.1134694999928,1328.1251374999993,1328.1251374999993,1328.1730327999976,1328.1732811999973,1328.1895723999914,1328.1895723999914,1328.1895723999914,1328.2562819000013,,,,,1328.6231359999947,,,,down,6.2574080000049435,None,space,0.4225583999941591,None,,,,,,,,,,,,,,,P154,001,2025-04-11_15h44.05.390,posner_endo_new1,2024.2.4,59.992788865995806,2025-04-11 15h44.11.931852 +0100,
cube_l.png,0.1,0.31,invalid,38,38,0,down,6.792559200010146,None,space,0.4893218000070192,None,,,,,0,38,38,38,,,,,1328.6391603999946,,,,,,,,,,,,,1328.623317999998,1328.6391603999946,1328.6391603999946,1328.6391603999946,1335.4331824999972,,,,1335.4395377000037,1335.4511854000011,1335.4511854000011,1335.4989010999998,1335.4991530999978,1335.5153724999982,1335.5153724999982,1335.5153724999982,1335.5987194000045,,,,,1336.0158314,,,,down,6.792559200010146,None,space,0.4893218000070192,None,,,,,,,,,,,,,,,P154,001,2025-04-11_15h44.05.390,posner_endo_new1,2024.2.4,59.992788865995806,2025-04-11 15h44.11.931852 +0100,
cube_r.png,0.1,0.31,valid,39,39,0,down,7.22413860000961,None,space,0.42100240000581834,None,,,,,0,39,39,39,,,,,1336.0316443000047,,,,,,,,,,,,,1336.0160100999929,1336.0316443000047,1336.0316443000047,1336.0316443000047,1343.2585001999978,,,,1343.2644468999933,1343.2760374999925,1343.2760374999925,1343.3242829999945,1343.3245344000024,1343.3408262000012,1343.3408262000012,1343.3408262000012,1343.4240444000025,,,,,1343.7746168000012,,,,down,7.22413860000961,None,space,0.42100240000581834,None,,,,,,,,,,,,,,,P154,001,2025-04-11_15h44.05.390,posner_endo_new1,2024.2.4,59.992788865995806,2025-04-11 15h44.11.931852 +0100,
cube_l.png,0.1,0.31,invalid,40,40,0,down,6.417135199997574,None,space,0.4479450000071665,None,,,,,0,40,40,40,,,,,1343.7902355999977,,,,,,,,,,,,,1343.7747965000017,1343.7902355999977,1343.7902355999977,1343.7902355999977,1350.2182537000044,,,,1350.2277537999908,1350.2380296000047,1350.2380296000047,1350.2837866999907,1350.2841190000036,1350.3003029999963,1350.3003029999963,1350.3003029999963,1350.3837328999944,,,,,1350.751164100002,,,,down,6.417135199997574,None,space,0.4479450000071665,None,,,,,,,,,,,,,,,P154,001,2025-04-11_15h44.05.390,posner_endo_new1,2024.2.4,59.992788865995806,2025-04-11 15h44.11.931852 +0100,
cube_l.png,0.1,10,catch,41,41,0,down,4.833650500004296,None,None,,,,,,,0,41,41,41,,,,,1350.7664711999969,,,,,,,,,,,,,1350.751432399993,1350.7664711999969,1350.7664711999969,1350.7664711999969,1355.6126988000033,,,,1355.6221551999915,1355.6325352999993,1355.6325352999993,1355.6781959999935,1355.6785315000016,1355.6948380999966,1355.6948380999966,1355.6948380999966,1355.7778528999916,1357.7926264999987,1358.7084491999994,1358.7084491999994,1358.7084491999994,1358.6921039000008,,,,down,4.833650500004296,None,None,,,,,,,,,,,,,,,,,P154,001,2025-04-11_15h44.05.390,posner_endo_new1,2024.2.4,59.992788865995806,2025-04-11 15h44.11.931852 +0100,
cube_l.png,0.1,-0.31,valid,42,42,0,down,3.8595659999991767,None,space,0.4223219999985304,None,,,,,0,42,42,42,,,,,1358.7084491999994,,,,,,,,,,,,,1358.6923443999985,1358.7084491999994,1358.7084491999994,1358.7084491999994,1362.5723436999979,,,,1362.5819153000048,1362.5921306999953,1362.5921306999953,1362.6378776999918,1362.638213600003,1362.6543605000043,1362.6543605000043,1362.6543605000043,1362.7376090000034,,,,,1363.088222499995,,,,down,3.8595659999991767,None,space,0.4223219999985304,None,,,,,,,,,,,,,,,P154,001,2025-04-11_15h44.05.390,posner_endo_new1,2024.2.4,59.992788865995806,2025-04-11 15h44.11.931852 +0100,
cube_l.png,0.1,10,catch,43,43,0,down,6.936455500006559,None,None,,,,,,,0,43,43,43,,,,,1363.1039917000016,,,,,,,,,,,,,1363.0884802999935,1363.1039917000016,1363.1039917000016,1363.1039917000016,1370.047631399997,,,,1370.0570934999996,1370.0673898999958,1370.0673898999958,1370.1133185999934,1370.1136536999984,1370.130080899995,1370.130080899995,1370.130080899995,1370.2130794999975,1372.2276701999945,1373.143750599993,1373.143750599993,1373.143750599993,1373.1273395000026,,,,down,6.936455500006559,None,None,,,,,,,,,,,,,,,,,P154,001,2025-04-11_15h44.05.390,posner_endo_new1,2024.2.4,59.992788865995806,2025-04-11 15h44.11.931852 +0100,
cube_l.png,0.1,0.31,invalid,44,44,0,down,3.3120878000045195,None,space,0.382100700007868,None,,,,,0,44,44,44,,,,,1373.143750599993,,,,,,,,,,,,,1373.1275115000026,1373.143750599993,1373.143750599993,1373.143750599993,1376.458068699998,,,,1376.4640608999907,1376.475709899998,1376.475709899998,1376.5236147999967,1376.5238594999973,1376.5399459000037,1376.5399459000037,1376.5399459000037,1376.623411099994,,,,,1376.9239562000002,,,,down,3.3120878000045195,None,space,0.382100700007868,None,,,,,,,,,,,,,,,P154,001,2025-04-11_15h44.05.390,posner_endo_new1,2024.2.4,59.992788865995806,2025-04-11 15h44.11.931852 +0100,
cube_l.png,0.1,0.31,invalid,45,45,0,down,6.171949900002801,None,space,0.5279725999862421,None,,,,,0,45,45,45,,,,,1376.9398258,,,,,,,,,,,,,1376.9241402000043,1376.9398258,1376.9398258,1376.9398258,1383.1217375999986,,,,1383.128375500004,1383.1375434999936,1383.1375434999936,1383.183445399991,1383.1836905999953,1383.199990699999,1383.199990699999,1383.199990699999,1383.2832586000004,,,,,1383.7336503999977,,,,down,6.171949900002801,None,space,0.5279725999862421,None,,,,,,,,,,,,,,,P154,001,2025-04-11_15h44.05.390,posner_endo_new1,2024.2.4,59.992788865995806,2025-04-11 15h44.11.931852 +0100,
cube_r.png,0.1,0.31,valid,46,46,0,down,6.498546599992551,None,space,0.42045749998942483,None,,,,,0,46,46,46,,,,,1383.7495233999944,,,,,,,,,,,,,1383.7338281999982,1383.7495233999944,1383.7495233999944,1383.7495233999944,1390.2601641999936,,,,1390.2661506000004,1390.2778006000008,1390.2778006000008,1390.3260643999965,1390.326312899997,1390.3427333,1390.3427333,1390.3427333,1390.4091940999933,,,,,1390.7764451999974,,,,down,6.498546599992551,None,space,0.42045749998942483,None,,,,,,,,,,,,,,,P154,001,2025-04-11_15h44.05.390,posner_endo_new1,2024.2.4,59.992788865995806,2025-04-11 15h44.11.931852 +0100,
cube_l.png,0.1,-0.31,valid,47,47,0,down,6.999135499994736,None,space,0.5257015999959549,None,,,,,0,47,47,47,,,,,1390.792247999998,,,,,,,,,,,,,1390.7766237000033,1390.792247999998,1390.792247999998,1390.792247999998,1397.802471499992,,,,1397.8084598999994,1397.820290299991,1397.820290299991,1397.8684382999927,1397.868694299992,1397.8850132999942,1397.8850132999942,1397.8850132999942,1397.951549999998,,,,,1398.4184441999969,,,,down,6.999135499994736,None,space,0.5257015999959549,None,,,,,,,,,,,,,,,P154,001,2025-04-11_15h44.05.390,posner_endo_new1,2024.2.4,59.992788865995806,2025-04-11 15h44.11.931852 +0100,
cube_r.png,0.1,-0.31,invalid,48,48,0,down,6.965029200000572,None,space,0.4290908000111813,None,,,,,0,48,48,48,,,,,1398.434335900005,,,,,,,,,,,,,1398.4186227000027,1398.434335900005,1398.434335900005,1398.434335900005,1405.4113885999977,,,,1405.417319100001,1405.4289543999912,1405.4289543999912,1405.4773062000022,1405.4775544000004,1405.4936749000044,1405.4936749000044,1405.4936749000044,1405.5605709999945,,,,,1405.9275531000021,,,,down,6.965029200000572,None,space,0.4290908000111813,None,,,,,,,,,,,,,,,P154,001,2025-04-11_15h44.05.390,posner_endo_new1,2024.2.4,59.992788865995806,2025-04-11 15h44.11.931852 +0100,
cube_r.png,0.1,10,catch,49,49,0,down,6.480412200005958,None,space,0.2907861999992747,None,,,,,0,49,49,49,,,,,1405.9433665999968,,,,,,,,,,,,,1405.9277350000048,1405.9433665999968,1405.9433665999968,1405.9433665999968,1412.4375849999924,,,,1412.4435723999923,1412.4551953999908,1412.4551953999908,1412.5034905999928,1412.5037349999911,1412.520023399993,1412.520023399993,1412.520023399993,1412.6031788999971,,,,,1412.820384599996,,,,down,6.480412200005958,None,space,0.2907861999992747,None,,,,,,,,,,,,,,,P154,001,2025-04-11_15h44.05.390,posner_endo_new1,2024.2.4,59.992788865995806,2025-04-11 15h44.11.931852 +0100,
cube_l.png,0.1,-0.31,valid,50,50,0,down,9.156108200011658,None,space,0.4030798000021605,None,,,,,0,50,50,50,,,,,1412.8363413000043,,,,,,,,,,,,,1412.8205618999928,1412.8363413000043,1412.8363413000043,1412.8363413000043,1421.9942904999916,,,,1422.000279400003,1422.0119364999991,1422.0119364999991,1422.0603261999931,1422.0605731999967,1422.0767953000031,1422.0767953000031,1422.0767953000031,1422.1435176999948,,,,,1422.4938987999922,,,,down,9.156108200011658,None,space,0.4030798000021605,None,,,,,,,,,,,,,,,P154,001,2025-04-11_15h44.05.390,posner_endo_new1,2024.2.4,59.992788865995806,2025-04-11 15h44.11.931852 +0100,
cube_l.png,0.1,-0.31,valid,51,51,0,down,4.178292099997634,None,space,0.37250879999191966,None,,,,,0,51,51,51,,,,,1422.5097862999974,,,,,,,,,,,,,1422.4940808999963,1422.5097862999974,1422.5097862999974,1422.5097862999974,1426.6898679000005,,,,1426.6959463999956,1426.707502899997,1426.707502899997,1426.7555877999985,1426.755834399999,1426.7720574999985,1426.7720574999985,1426.7720574999985,1426.8554611,,,,,1427.1558825999964,,,,down,4.178292099997634,None,space,0.37250879999191966,None,,,,,,,,,,,,,,,P154,001,2025-04-11_15h44.05.390,posner_endo_new1,2024.2.4,59.992788865995806,2025-04-11 15h44.11.931852 +0100,
cube_r.png,0.1,-0.31,invalid,52,52,0,down,5.763671100008651,None,space,0.4660846000042511,None,,,,,0,52,52,52,,,,,1427.1716004999907,,,,,,,,,,,,,1427.1560606999992,1427.1716004999907,1427.1716004999907,1427.1716004999907,1432.949895800004,,,,1432.9558675000007,1432.967414800005,1432.967414800005,1433.0158028000005,1433.0160528999986,1433.0323604000005,1433.0323604000005,1433.0323604000005,1433.1156656999956,,,,,1433.499356699991,,,,down,5.763671100008651,None,space,0.4660846000042511,None,,,,,,,,,,,,,,,P154,001,2025-04-11_15h44.05.390,posner_endo_new1,2024.2.4,59.992788865995806,2025-04-11 15h44.11.931852 +0100,
cube_l.png,0.1,-0.31,valid,53,53,0,down,4.764266400001361,None,space,0.3589531000034185,None,,,,,0,53,53,53,,,,,1433.5149975999957,,,,,,,,,,,,,1433.4995555999922,1433.5149975999957,1433.5149975999957,1433.5149975999957,1438.2944410999917,,,,1438.3004733999987,1438.3121108999912,1438.3121108999912,1438.3602529999916,1438.360506900004,1438.3769463999924,1438.3769463999924,1438.3769463999924,1438.4600935999915,,,,,1438.7439379999996,,,,down,4.764266400001361,None,space,0.3589531000034185,None,,,,,,,,,,,,,,,P154,001,2025-04-11_15h44.05.390,posner_endo_new1,2024.2.4,59.992788865995806,2025-04-11 15h44.11.931852 +0100,
cube_r.png,0.1,10,catch,54,54,0,down,6.383708800000022,None,None,,,,,,,0,54,54,54,,,,,1438.7599344000046,,,,,,,,,,,,,1438.7441240999906,1438.7599344000046,1438.7599344000046,1438.7599344000046,1445.1544708000001,,,,1445.1683377000008,1445.1788712999987,1445.1788712999987,1445.2200385000033,1445.2203502000048,1445.2365054999973,1445.2365054999973,1445.2365054999973,1445.3197482999967,1447.3343759999989,1448.2501193999924,1448.2501193999924,1448.2501193999924,1448.2341255999927,,,,down,6.383708800000022,None,None,,,,,,,,,,,,,,,,,P154,001,2025-04-11_15h44.05.390,posner_endo_new1,2024.2.4,59.992788865995806,2025-04-11 15h44.11.931852 +0100,
cube_l.png,0.1,0.31,invalid,55,55,0,down,2.213152700001956,None,space,0.42625270001008175,None,,,,,0,55,55,55,,,,,1448.2501193999924,,,,,,,,,,,,,1448.2343660000042,1448.2501193999924,1448.2501193999924,1448.2501193999924,1450.4654659999942,,,,1450.4741215999966,1450.4846139,1450.4846139,1450.531326299999,1450.531639199995,1450.547712700005,1450.547712700005,1450.547712700005,1450.6310192999954,,,,,1450.9816955999995,,,,down,2.213152700001956,None,space,0.42625270001008175,None,,,,,,,,,,,,,,,P154,001,2025-04-11_15h44.05.390,posner_endo_new1,2024.2.4,59.992788865995806,2025-04-11 15h44.11.931852 +0100,
cube_l.png,0.1,-0.31,valid,56,56,0,down,5.786658500001067,None,space,0.6618573000014294,None,,,,,0,56,56,56,,,,,1450.9972244999954,,,,,,,,,,,,,1450.981938099998,1450.9972244999954,1450.9972244999954,1450.9972244999954,1456.7923045999923,,,,1456.8008905000024,1456.8111776000005,1456.8111776000005,1456.8580405999965,1456.8583519999956,1456.8745842999924,1456.8745842999924,1456.8745842999924,1456.9578204999998,,,,,1457.5418063999969,,,,down,5.786658500001067,None,space,0.6618573000014294,None,,,,,,,,,,,,,,,P154,001,2025-04-11_15h44.05.390,posner_endo_new1,2024.2.4,59.992788865995806,2025-04-11 15h44.11.931852 +0100,
cube_r.png,0.1,0.31,valid,57,57,0,down,2.9469347999984166,None,space,0.4286145999940345,None,,,,,0,57,57,57,,,,,1457.5572664999927,,,,,,,,,,,,,1457.5420444999909,1457.5572664999927,1457.5572664999927,1457.5572664999927,1460.5055120000034,,,,1460.5141277999937,1460.524417099994,1460.524417099994,1460.5709946999996,1460.571314899993,1460.5874819000019,1460.5874819000019,1460.5874819000019,1460.6707790999935,,,,,1461.021559899993,,,,down,2.9469347999984166,None,space,0.4286145999940345,None,,,,,,,,,,,,,,,P154,001,2025-04-11_15h44.05.390,posner_endo_new1,2024.2.4,59.992788865995806,2025-04-11 15h44.11.931852 +0100,
cube_r.png,0.1,-0.31,invalid,58,58,0,down,7.434726299994509,None,space,0.39329219999490306,None,,,,,0,58,58,58,,,,,1461.0370217000018,,,,,,,,,,,,,1461.021796999994,1461.0370217000018,1461.0370217000018,1461.0370217000018,1468.4803929000045,,,,1468.4887699999963,1468.4991238999937,1468.4991238999937,1468.5460891999974,1468.546337599997,1468.5626453000004,1468.5626453000004,1468.5626453000004,1468.6458843,,,,,1468.9629134999996,,,,down,7.434726299994509,None,space,0.39329219999490306,None,,,,,,,,,,,,,,,P154,001,2025-04-11_15h44.05.390,posner_endo_new1,2024.2.4,59.992788865995806,2025-04-11 15h44.11.931852 +0100,
cube_l.png,0.1,0.31,invalid,59,59,0,down,6.300734800010105,None,space,0.44821889999730047,None,,,,,0,59,59,59,,,,,1468.9790116999939,,,,,,,,,,,,,1468.9630949999992,1468.9790116999939,1468.9790116999939,1468.9790116999939,1475.289884800004,,,,1475.2959117999999,1475.3076584999944,1475.3076584999944,1475.355748499991,1475.356005499998,1475.3722104999906,1475.3722104999906,1475.3722104999906,1475.438961699998,,,,,1475.8227559999941,,,,down,6.300734800010105,None,space,0.44821889999730047,None,,,,,,,,,,,,,,,P154,001,2025-04-11_15h44.05.390,posner_endo_new1,2024.2.4,59.992788865995806,2025-04-11 15h44.11.931852 +0100,
,,,,,,,,,,,,,,,,,,,,,,,,,,,,,,,,,,,,,,,,,,,,,,,,,,,,,,,,,,,,,,,,,,,,,1475.8228723999928,1475.8385566999932,1475.8385566999932,1535.8438131000003,1537.8095218999952,space,61.96143110000412,None,,,,,,,P154,001,2025-04-11_15h44.05.390,posner_endo_new1,2024.2.4,59.992788865995806,2025-04-11 15h44.11.931852 +0100,
,,,,,,,,,,,,,,,,,,,,,,,,,,,,,,,,,,1537.809619599997,1537.8251261999976,1540.9051945999963,1540.8060206999944,,,,,,,,,,,,,,,,,,,,,,,,,,,,,,,,,,,,,,,,,,,,,,P154,001,2025-04-11_15h44.05.390,posner_endo_new1,2024.2.4,59.992788865995806,2025-04-11 15h44.11.931852 +0100,
cube_l.png,0.1,10,catch,0,0,0,up,2.694251399996574,None,None,,,,,,,,,,,0,0,0,0,1540.9051945999963,,,,,,,,,,,,,1540.8965809999936,1540.9051945999963,1540.9051945999963,1540.9051945999963,1543.6035682999936,,,,1543.6112681999948,1543.6232021000033,1543.6232021000033,1543.6693148999912,1543.6699245999916,1543.685693099993,1543.685693099993,1543.685693099993,1543.7689315000025,1545.7835388999956,1546.699260399997,1546.699260399997,1546.699260399997,1546.6837792000006,,,,,,,,,,,,,,,,,,up,2.694251399996574,None,None,,,P154,001,2025-04-11_15h44.05.390,posner_endo_new1,2024.2.4,59.992788865995806,2025-04-11 15h44.11.931852 +0100,
cube_l.png,0.1,10,catch,1,1,0,up,4.236182900000131,None,None,,,,,,,,,,,0,1,1,1,1546.699260399997,,,,,,,,,,,,,1546.6842334999965,1546.699260399997,1546.699260399997,1546.699260399997,1550.9468426999956,,,,1550.9648674999917,1550.9764836999966,1550.9764836999966,1551.0117519999912,1551.0123467999947,1551.0281623999908,1551.0281623999908,1551.0281623999908,1551.1114249999955,1553.126034899993,1554.0417738999968,1554.0417738999968,1554.0417738999968,1554.0262842999946,,,,,,,,,,,,,,,,,,up,4.236182900000131,None,None,,,P154,001,2025-04-11_15h44.05.390,posner_endo_new1,2024.2.4,59.992788865995806,2025-04-11 15h44.11.931852 +0100,
cube_l.png,0.1,0.31,invalid,2,2,0,up,2.445865899993805,None,space,0.470703400002094,None,,,,,,,,,0,2,2,2,1554.0417738999968,,,,,,,,,,,,,1554.0267380000005,1554.0417738999968,1554.0417738999968,1554.0417738999968,1556.4913828999997,,,,1556.5091212999978,1556.519625300003,1556.519625300003,1556.556047399994,1556.5564242999972,1556.572633200005,1556.572633200005,1556.572633200005,1556.6557997999917,,,,,1557.0573229000001,,,,,,,,,,,,,,,,,,up,2.445865899993805,None,space,0.470703400002094,None,P154,001,2025-04-11_15h44.05.390,posner_endo_new1,2024.2.4,59.992788865995806,2025-04-11 15h44.11.931852 +0100,
cube_l.png,0.1,0.31,invalid,3,3,0,up,11.919425500003854,None,space,0.4095955000084359,None,,,,,,,,,0,3,3,3,1557.0720043000038,,,,,,,,,,,,,1557.0578126000037,1557.0720043000038,1557.0720043000038,1557.0720043000038,1568.9953507000027,,,,1569.013599900005,1569.0254770000029,1569.0254770000029,1569.0599191999936,1569.0603020999988,1569.0765086000029,1569.0765086000029,1569.0765086000029,1569.1596150999976,,,,,1569.493987199996,,,,,,,,,,,,,,,,,,up,11.919425500003854,None,space,0.4095955000084359,None,P154,001,2025-04-11_15h44.05.390,posner_endo_new1,2024.2.4,59.992788865995806,2025-04-11 15h44.11.931852 +0100,
cube_l.png,0.1,-0.31,valid,4,4,0,up,6.618154900002992,None,space,0.4494381999975303,None,,,,,,,,,0,4,4,4,1569.5093643,,,,,,,,,,,,,1569.4942895999993,1569.5093643,1569.5093643,1569.5093643,1576.1368130999908,,,,1576.1440729000024,1576.1553734999907,1576.1553734999907,1576.2025758999953,1576.2031199000048,1576.218987100001,1576.218987100001,1576.218987100001,1576.3022262000013,,,,,1576.670663500001,,,,,,,,,,,,,,,,,,up,6.618154900002992,None,space,0.4494381999975303,None,P154,001,2025-04-11_15h44.05.390,posner_endo_new1,2024.2.4,59.992788865995806,2025-04-11 15h44.11.931852 +0100,
cube_r.png,0.1,-0.31,invalid,5,5,0,up,4.62691319998703,None,space,0.3805902000021888,None,,,,,,,,,0,5,5,5,1576.685125399992,,,,,,,,,,,,,1576.6711178999976,1576.685125399992,1576.685125399992,1576.685125399992,1581.3156909999961,,,,1581.3321047999925,1581.343168899999,1581.343168899999,1581.380719199995,1581.381057599996,1581.3972723000043,1581.3972723000043,1581.3972723000043,1581.480479299993,,,,,1581.7811590999918,,,,,,,,,,,,,,,,,,up,4.62691319998703,None,space,0.3805902000021888,None,P154,001,2025-04-11_15h44.05.390,posner_endo_new1,2024.2.4,59.992788865995806,2025-04-11 15h44.11.931852 +0100,
cube_r.png,0.1,0.31,valid,6,6,0,up,5.3157404999947175,None,space,0.3438218999945093,None,,,,,,,,,0,6,6,6,1581.796796499999,,,,,,,,,,,,,1581.7814216999977,1581.796796499999,1581.796796499999,1581.796796499999,1587.1259435999964,,,,1587.1372605999932,1587.1478081999958,1587.1478081999958,1587.1912517000019,1587.1915333999932,1587.2075765999907,1587.2075765999907,1587.2075765999907,1587.2909828999982,,,,,1587.558211800002,,,,,,,,,,,,,,,,,,up,5.3157404999947175,None,space,0.3438218999945093,None,P154,001,2025-04-11_15h44.05.390,posner_endo_new1,2024.2.4,59.992788865995806,2025-04-11 15h44.11.931852 +0100,
cube_r.png,0.1,-0.31,invalid,7,7,0,up,6.529730800000834,None,space,0.36868200000026263,None,,,,,,,,,0,7,7,7,1587.574245099997,,,,,,,,,,,,,1587.5584422999964,1587.574245099997,1587.574245099997,1587.574245099997,1594.118391600001,,,,1594.1257055000024,1594.136983999997,1594.136983999997,1594.1841557000007,1594.1844339999952,1594.2007416999986,1594.2007416999986,1594.2007416999986,1594.2836946000025,,,,,1594.5844789999974,,,,,,,,,,,,,,,,,,up,6.529730800000834,None,space,0.36868200000026263,None,P154,001,2025-04-11_15h44.05.390,posner_endo_new1,2024.2.4,59.992788865995806,2025-04-11 15h44.11.931852 +0100,
cube_l.png,0.1,-0.31,valid,8,8,0,up,6.0475046999927144,None,space,0.4222392000083346,None,,,,,,,,,0,8,8,8,1594.6002367000037,,,,,,,,,,,,,1594.5846861000027,1594.6002367000037,1594.6002367000037,1594.6002367000037,1600.6616674999968,,,,1600.668933199995,1600.6803268999938,1600.6803268999938,1600.7274539999926,1600.7277265000012,1600.744047500004,1600.744047500004,1600.744047500004,1600.8271281999914,,,,,1601.1776654999994,,,,,,,,,,,,,,,,,,up,6.0475046999927144,None,space,0.4222392000083346,None,P154,001,2025-04-11_15h44.05.390,posner_endo_new1,2024.2.4,59.992788865995806,2025-04-11 15h44.11.931852 +0100,
cube_r.png,0.1,-0.31,invalid,9,9,0,up,6.022140000000945,None,space,0.2974843999982113,None,,,,,,,,,0,9,9,9,1601.1932597999985,,,,,,,,,,,,,1601.177878100003,1601.1932597999985,1601.1932597999985,1601.1932597999985,1607.2215754999925,,,,1607.2288220999908,1607.240290799993,1607.240290799993,1607.287427000003,1607.2879705999949,1607.303831600002,1607.303831600002,1607.303831600002,1607.387078899992,,,,,1607.6055670999922,,,,,,,,,,,,,,,,,,up,6.022140000000945,None,space,0.2974843999982113,None,P154,001,2025-04-11_15h44.05.390,posner_endo_new1,2024.2.4,59.992788865995806,2025-04-11 15h44.11.931852 +0100,
cube_l.png,0.1,0.31,invalid,10,10,0,up,8.411214500010828,None,space,0.3349904000060633,None,,,,,,,,,0,10,10,10,1607.6201746000006,,,,,,,,,,,,,1607.6060185999959,1607.6201746000006,1607.6201746000006,1607.6201746000006,1616.0462126999919,,,,1616.0575129999925,1616.0679009000014,1616.0679009000014,1616.1117121999996,1616.1119861000043,1616.1281404000038,1616.1281404000038,1616.1281404000038,1616.211620499991,,,,,1616.4787257999997,,,,,,,,,,,,,,,,,,up,8.411214500010828,None,space,0.3349904000060633,None,P154,001,2025-04-11_15h44.05.390,posner_endo_new1,2024.2.4,59.992788865995806,2025-04-11 15h44.11.931852 +0100,
cube_r.png,0.1,-0.31,invalid,11,11,0,up,6.593435999995563,None,space,0.39682880000327714,None,,,,,,,,,0,11,11,11,1616.494477100001,,,,,,,,,,,,,1616.4789351999934,1616.494477100001,1616.494477100001,1616.494477100001,1623.0888907000044,,,,1623.096122899995,1623.1074586000032,1623.1074586000032,1623.154443899999,1623.1549950999906,1623.1709208999964,1623.1709208999964,1623.1709208999964,1623.2541200999985,,,,,1623.5724824999925,,,,,,,,,,,,,,,,,,up,6.593435999995563,None,space,0.39682880000327714,None,P154,001,2025-04-11_15h44.05.390,posner_endo_new1,2024.2.4,59.992788865995806,2025-04-11 15h44.11.931852 +0100,
cube_r.png,0.1,0.31,valid,12,12,0,up,7.052831000008155,None,space,0.34676929999841377,None,,,,,,,,,0,12,12,12,1623.5871298999991,,,,,,,,,,,,,1623.5729357999953,1623.5871298999991,1623.5871298999991,1623.5871298999991,1630.6491763999948,,,,1630.6657250999997,1630.6768922999909,1630.6768922999909,1630.7135541000025,1630.7138960000011,1630.729919999998,1630.729919999998,1630.729919999998,1630.8131936999998,,,,,1631.081011599992,,,,,,,,,,,,,,,,,,up,7.052831000008155,None,space,0.34676929999841377,None,P154,001,2025-04-11_15h44.05.390,posner_endo_new1,2024.2.4,59.992788865995806,2025-04-11 15h44.11.931852 +0100,
cube_l.png,0.1,10,catch,13,13,0,up,6.463680500004557,None,None,,,,,,,,,,,0,13,13,13,1631.0962635000033,,,,,,,,,,,,,1631.0812843000022,1631.0962635000033,1631.0962635000033,1631.0962635000033,1637.5741656000027,,,,1637.5849694999924,1637.5952851000038,1637.5952851000038,1637.6397061000025,1637.640084700004,1637.656223099999,1637.656223099999,1637.656223099999,1637.7395113999955,1639.7540972999996,1640.6699082999985,1640.6699082999985,1640.6699082999985,1640.653694499997,,,,,,,,,,,,,,,,,,up,6.463680500004557,None,None,,,P154,001,2025-04-11_15h44.05.390,posner_endo_new1,2024.2.4,59.992788865995806,2025-04-11 15h44.11.931852 +0100,
cube_r.png,0.1,-0.31,invalid,14,14,0,up,5.073346599994693,None,space,0.528074400004698,None,,,,,,,,,0,14,14,14,1640.6699082999985,,,,,,,,,,,,,1640.6538699999946,1640.6699082999985,1640.6699082999985,1640.6699082999985,1645.7488939000032,,,,1645.755206300004,1645.7667828999984,1645.7667828999984,1645.8147003999911,1645.8149515999976,1645.831149199992,1645.831149199992,1645.831149199992,1645.9144098999968,,,,,1646.3649194000027,,,,,,,,,,,,,,,,,,up,5.073346599994693,None,space,0.528074400004698,None,P154,001,2025-04-11_15h44.05.390,posner_endo_new1,2024.2.4,59.992788865995806,2025-04-11 15h44.11.931852 +0100,
cube_l.png,0.1,-0.31,valid,15,15,0,up,6.274616499998956,None,space,0.43655610000132583,None,,,,,,,,,0,15,15,15,1646.3807324999943,,,,,,,,,,,,,1646.3651028000022,1646.3807324999943,1646.3807324999943,1646.3807324999943,1652.658307699996,,,,1652.6642863000015,1652.6760985,1652.6760985,1652.7242293000018,1652.7244791999983,1652.7408519000019,1652.7408519000019,1652.7408519000019,1652.807498299997,,,,,1653.1913262000016,,,,,,,,,,,,,,,,,,up,6.274616499998956,None,space,0.43655610000132583,None,P154,001,2025-04-11_15h44.05.390,posner_endo_new1,2024.2.4,59.992788865995806,2025-04-11 15h44.11.931852 +0100,
cube_r.png,0.1,10,catch,16,16,0,up,7.880943199998001,None,None,,,,,,,,,,,0,16,16,16,1653.206984000004,,,,,,,,,,,,,1653.1915120000049,1653.206984000004,1653.206984000004,1653.206984000004,1661.0998137999995,,,,1661.1058048999985,1661.1173295000044,1661.1173295000044,1661.1657169999962,1661.1659673999966,1661.182134200004,1661.182134200004,1661.182134200004,1661.248783499992,1663.2635917000007,1664.1957497999974,1664.1957497999974,1664.1957497999974,1664.1795544999914,,,,,,,,,,,,,,,,,,up,7.880943199998001,None,None,,,P154,001,2025-04-11_15h44.05.390,posner_endo_new1,2024.2.4,59.992788865995806,2025-04-11 15h44.11.931852 +0100,
cube_r.png,0.1,10,catch,17,17,0,up,5.755427399999462,None,None,,,,,,,,,,,0,17,17,17,1664.1957497999974,,,,,,,,,,,,,1664.1797277000005,1664.1957497999974,1664.1957497999974,1664.1957497999974,1669.9572681999998,,,,1669.9632652,1669.9748890000046,1669.9748890000046,1670.0233065999928,1670.0235561000009,1670.0396506999969,1670.0396506999969,1670.0396506999969,1670.1060515999998,1672.1209568999911,1673.053415699993,1673.053415699993,1673.053415699993,1673.0373938999983,,,,,,,,,,,,,,,,,,up,5.755427399999462,None,None,,,P154,001,2025-04-11_15h44.05.390,posner_endo_new1,2024.2.4,59.992788865995806,2025-04-11 15h44.11.931852 +0100,
cube_l.png,0.1,0.31,invalid,18,18,0,up,4.14646879999782,None,space,0.4606102999969153,None,,,,,,,,,0,18,18,18,1673.053415699993,,,,,,,,,,,,,1673.037624699995,1673.053415699993,1673.053415699993,1673.053415699993,1677.2168620000011,,,,1677.2254488000035,1677.2352709999977,1677.2352709999977,1677.282534900005,1677.2828619999927,1677.2991312999948,1677.2991312999948,1677.2991312999948,1677.3823162000044,,,,,1677.7661672999966,,,,,,,,,,,,,,,,,,up,4.14646879999782,None,space,0.4606102999969153,None,P154,001,2025-04-11_15h44.05.390,posner_endo_new1,2024.2.4,59.992788865995806,2025-04-11 15h44.11.931852 +0100,
cube_l.png,0.1,10,catch,19,19,0,up,7.83365899999626,None,None,,,,,,,,,,,0,19,19,19,1677.781718600003,,,,,,,,,,,,,1677.7664108000026,1677.781718600003,1677.781718600003,1677.781718600003,1685.6247028999933,,,,1685.6332916999963,1685.6435191999917,1685.6435191999917,1685.6904751999973,1685.6907881999941,1685.7070901999978,1685.7070901999978,1685.7070901999978,1685.790187599996,1687.8049504999944,1688.7207036000036,1688.7207036000036,1688.7207036000036,1688.704654999994,,,,,,,,,,,,,,,,,,up,7.83365899999626,None,None,,,P154,001,2025-04-11_15h44.05.390,posner_endo_new1,2024.2.4,59.992788865995806,2025-04-11 15h44.11.931852 +0100,
cube_l.png,0.1,0.31,invalid,20,20,0,up,4.590489200010779,None,space,0.512937299994519,None,,,,,,,,,0,20,20,20,1688.7207036000036,,,,,,,,,,,,,1688.7048824999947,1688.7207036000036,1688.7207036000036,1688.7207036000036,1693.3171531999978,,,,1693.325783399996,1693.336122099994,1693.336122099994,1693.3826604999922,1693.3829722999944,1693.3990416000015,1693.3990416000015,1693.3990416000015,1693.482588400002,,,,,1693.9164337999973,,,,,,,,,,,,,,,,,,up,4.590489200010779,None,space,0.512937299994519,None,P154,001,2025-04-11_15h44.05.390,posner_endo_new1,2024.2.4,59.992788865995806,2025-04-11 15h44.11.931852 +0100,
cube_l.png,0.1,-0.31,valid,21,21,0,up,7.028132199993706,None,space,0.44792279999819584,None,,,,,,,,,0,21,21,21,1693.9319165999914,,,,,,,,,,,,,1693.9166781999957,1693.9319165999914,1693.9319165999914,1693.9319165999914,1700.9758450999943,,,,1700.9844129999983,1700.9946918999922,1700.9946918999922,1701.0415455000038,1701.0418607000029,1701.0580084999965,1701.0580084999965,1701.0580084999965,1701.1412755999918,,,,,1701.508703799991,,,,,,,,,,,,,,,,,,up,7.028132199993706,None,space,0.44792279999819584,None,P154,001,2025-04-11_15h44.05.390,posner_endo_new1,2024.2.4,59.992788865995806,2025-04-11 15h44.11.931852 +0100,
cube_r.png,0.1,0.31,valid,22,22,0,up,6.755260699996143,None,space,0.42276449999189936,None,,,,,,,,,0,22,22,22,1701.5242634000024,,,,,,,,,,,,,1701.5089558000036,1701.5242634000024,1701.5242634000024,1701.5242634000024,1708.2851879999944,,,,1708.2937711999984,1708.3040456000017,1708.3040456000017,1708.3507541,1708.3510750999994,1708.3673460999998,1708.3673460999998,1708.3673460999998,1708.4504491999978,,,,,1708.8011714000022,,,,,,,,,,,,,,,,,,up,6.755260699996143,None,space,0.42276449999189936,None,P154,001,2025-04-11_15h44.05.390,posner_endo_new1,2024.2.4,59.992788865995806,2025-04-11 15h44.11.931852 +0100,
cube_r.png,0.1,-0.31,invalid,23,23,0,up,6.910524200007785,None,space,0.4051395999995293,None,,,,,,,,,0,23,23,23,1708.8168068999948,,,,,,,,,,,,,1708.801419800002,1708.8168068999948,1708.8168068999948,1708.8168068999948,1715.7439981999923,,,,1715.7525865999924,1715.7626619999937,1715.7626619999937,1715.8097417999961,1715.810055599999,1715.8262499999983,1715.8262499999983,1715.8262499999983,1715.9095402999956,,,,,1716.243324199997,,,,,,,,,,,,,,,,,,up,6.910524200007785,None,space,0.4051395999995293,None,P154,001,2025-04-11_15h44.05.390,posner_endo_new1,2024.2.4,59.992788865995806,2025-04-11 15h44.11.931852 +0100,
cube_r.png,0.1,0.31,valid,24,24,0,up,8.388729300000705,None,space,0.42475540000305045,None,,,,,,,,,0,24,24,24,1716.2591045000008,,,,,,,,,,,,,1716.2435693000007,1716.2591045000008,1716.2591045000008,1716.2591045000008,1724.6517071999988,,,,1724.660332200001,1724.6704809999937,1724.6704809999937,1724.7172663999954,1724.7175881000003,1724.7337346999993,1724.7337346999993,1724.7337346999993,1724.8170542000007,,,,,1725.1677240999998,,,,,,,,,,,,,,,,,,up,8.388729300000705,None,space,0.42475540000305045,None,P154,001,2025-04-11_15h44.05.390,posner_endo_new1,2024.2.4,59.992788865995806,2025-04-11 15h44.11.931852 +0100,
cube_r.png,0.1,-0.31,invalid,25,25,0,up,7.280709499988006,None,space,0.4190219000010984,None,,,,,,,,,0,25,25,25,1725.1833706000034,,,,,,,,,,,,,1725.1679754999932,1725.1833706000034,1725.1833706000034,1725.1833706000034,1732.4769118999975,,,,1732.4854788999946,1732.4957417999976,1732.4957417999976,1732.5425624999916,1732.542875500003,1732.5590401999943,1732.5590401999943,1732.5590401999943,1732.642375800002,,,,,1732.9929942000017,,,,,,,,,,,,,,,,,,up,7.280709499988006,None,space,0.4190219000010984,None,P154,001,2025-04-11_15h44.05.390,posner_endo_new1,2024.2.4,59.992788865995806,2025-04-11 15h44.11.931852 +0100,
cube_l.png,0.1,-0.31,valid,26,26,0,up,6.279249500003061,None,space,0.4454270000132965,None,,,,,,,,,0,26,26,26,1733.0087904999964,,,,,,,,,,,,,1732.9932397999946,1733.0087904999964,1733.0087904999964,1733.0087904999964,1739.3033949999954,,,,1739.3120010999992,1739.3223045999912,1739.3223045999912,1739.3690845999954,1739.3696748999937,1739.3854299999948,1739.3854299999948,1739.3854299999948,1739.4687088999926,,,,,1739.8370942000038,,,,,,,,,,,,,,,,,,up,6.279249500003061,None,space,0.4454270000132965,None,P154,001,2025-04-11_15h44.05.390,posner_endo_new1,2024.2.4,59.992788865995806,2025-04-11 15h44.11.931852 +0100,
cube_r.png,0.1,0.31,valid,27,27,0,up,5.116245799988974,None,space,0.5035104999988107,None,,,,,,,,,0,27,27,27,1739.8516259000025,,,,,,,,,,,,,1739.837583799992,1739.8516259000025,1739.8516259000025,1739.8516259000025,1744.9817087999982,,,,1744.9988594000024,1745.0092682999966,1745.0092682999966,1745.0464376000018,1745.0468215,1745.0630393000029,1745.0630393000029,1745.0630393000029,1745.1461968999938,,,,,1745.5804212999938,,,,,,,,,,,,,,,,,,up,5.116245799988974,None,space,0.5035104999988107,None,P154,001,2025-04-11_15h44.05.390,posner_endo_new1,2024.2.4,59.992788865995806,2025-04-11 15h44.11.931852 +0100,
cube_r.png,0.1,10,catch,28,28,0,up,7.195523400005186,None,None,,,,,,,,,,,0,28,28,28,1745.595843300005,,,,,,,,,,,,,1745.5807235999964,1745.595843300005,1745.595843300005,1745.595843300005,1752.8070239999943,,,,1752.8251874999987,1752.8368394999998,1752.8368394999998,1752.8718950000039,1752.8722794999921,1752.888259799991,1752.888259799991,1752.888259799991,1752.971556599994,1754.9864778000046,1755.9018556999945,1755.9018556999945,1755.9018556999945,1755.885898099994,,,,,,,,,,,,,,,,,,up,7.195523400005186,None,None,,,P154,001,2025-04-11_15h44.05.390,posner_endo_new1,2024.2.4,59.992788865995806,2025-04-11 15h44.11.931852 +0100,
cube_r.png,0.1,0.31,valid,29,29,0,up,3.6978430000017397,None,space,0.42468739999458194,None,,,,,,,,,0,29,29,29,1755.9018556999945,,,,,,,,,,,,,1755.886094100002,1755.9018556999945,1755.9018556999945,1755.9018556999945,1759.615638599993,,,,1759.6230829999986,1759.6342957000015,1759.6342957000015,1759.6814505999937,1759.6820020000014,1759.6978816999908,1759.6978816999908,1759.6978816999908,1759.7811236999987,,,,,1760.132616399991,,,,,,,,,,,,,,,,,,up,3.6978430000017397,None,space,0.42468739999458194,None,P154,001,2025-04-11_15h44.05.390,posner_endo_new1,2024.2.4,59.992788865995806,2025-04-11 15h44.11.931852 +0100,
cube_r.png,0.1,0.31,valid,30,30,0,up,6.85991759999888,None,space,0.46643000000040047,None,,,,,,,,,0,30,30,30,1760.1474383000022,,,,,,,,,,,,,1760.1330641999957,1760.1474383000022,1760.1474383000022,1760.1474383000022,1767.0087057999917,,,,1767.0200478000042,1767.0304586999991,1767.0304586999991,1767.073929899998,1767.0743285999924,1767.0904750999907,1767.0904750999907,1767.0904750999907,1767.1736576999974,,,,,1767.5581939999975,,,,,,,,,,,,,,,,,,up,6.85991759999888,None,space,0.46643000000040047,None,P154,001,2025-04-11_15h44.05.390,posner_endo_new1,2024.2.4,59.992788865995806,2025-04-11 15h44.11.931852 +0100,
cube_l.png,0.1,-0.31,valid,31,31,0,up,7.530749500001548,None,space,0.368047399999341,None,,,,,,,,,0,31,31,31,1767.5732895999972,,,,,,,,,,,,,1767.5585260999942,1767.5732895999972,1767.5732895999972,1767.5732895999972,1775.1163765999954,,,,1775.1236436000036,1775.1349922999943,1775.1349922999943,1775.1824267000047,1775.1830203999998,1775.1988049999927,1775.1988049999927,1775.1988049999927,1775.2653663999954,,,,,1775.5837574000034,,,,,,,,,,,,,,,,,,up,7.530749500001548,None,space,0.368047399999341,None,P154,001,2025-04-11_15h44.05.390,posner_endo_new1,2024.2.4,59.992788865995806,2025-04-11 15h44.11.931852 +0100,
cube_r.png,0.1,0.31,valid,32,32,0,up,5.912929399986751,None,space,0.3770771999988938,None,,,,,,,,,0,32,32,32,1775.5983747999999,,,,,,,,,,,,,1775.5842450999917,1775.5983747999999,1775.5983747999999,1775.5983747999999,1781.527593299994,,,,1781.5457118999911,1781.5568301000021,1781.5568301000021,1781.592535200005,1781.593145299994,1781.6089124999999,1781.6089124999999,1781.6089124999999,1781.692152699994,,,,,1781.993866299992,,,,,,,,,,,,,,,,,,up,5.912929399986751,None,space,0.3770771999988938,None,P154,001,2025-04-11_15h44.05.390,posner_endo_new1,2024.2.4,59.992788865995806,2025-04-11 15h44.11.931852 +0100,
cube_r.png,0.1,-0.31,invalid,33,33,0,up,6.630894499990973,None,space,0.3710140000039246,None,,,,,,,,,0,33,33,33,1782.0084752999974,,,,,,,,,,,,,1781.9943645000021,1782.0084752999974,1782.0084752999974,1782.0084752999974,1788.6538241999951,,,,1788.6717942999967,1788.6836475000018,1788.6836475000018,1788.7185229000024,1788.7188371999946,1788.7350446999917,1788.7350446999917,1788.7350446999917,1788.8182494999928,,,,,1789.1198856999981,,,,,,,,,,,,,,,,,,up,6.630894499990973,None,space,0.3710140000039246,None,P154,001,2025-04-11_15h44.05.390,posner_endo_new1,2024.2.4,59.992788865995806,2025-04-11 15h44.11.931852 +0100,
cube_r.png,0.1,10,catch,34,34,0,up,6.161211200000253,None,None,,,,,,,,,,,0,34,34,34,1789.1345532999985,,,,,,,,,,,,,1789.120373999991,1789.1345532999985,1789.1345532999985,1789.1345532999985,1795.3132989000005,,,,1795.3311560000002,1795.342439999993,1795.342439999993,1795.3784061000042,1795.3787475999998,1795.3948512999923,1795.3948512999923,1795.3948512999923,1795.4781684000045,1797.4927027999947,1798.408360500005,1798.408360500005,1798.408360500005,1798.3929715999984,,,,,,,,,,,,,,,,,,up,6.161211200000253,None,None,,,P154,001,2025-04-11_15h44.05.390,posner_endo_new1,2024.2.4,59.992788865995806,2025-04-11 15h44.11.931852 +0100,
cube_r.png,0.1,0.31,valid,35,35,0,up,4.071590799998376,None,space,0.44276540000282694,None,,,,,,,,,0,35,35,35,1798.408360500005,,,,,,,,,,,,,1798.393434800004,1798.408360500005,1798.408360500005,1798.408360500005,1802.4895935999957,,,,1802.5075863999955,1802.5181979999907,1802.5181979999907,1802.5543117999914,1802.5546886999946,1802.570892200005,1802.570892200005,1802.570892200005,1802.654035799991,,,,,1803.0218660999963,,,,,,,,,,,,,,,,,,up,4.071590799998376,None,space,0.44276540000282694,None,P154,001,2025-04-11_15h44.05.390,posner_endo_new1,2024.2.4,59.992788865995806,2025-04-11 15h44.11.931852 +0100,
cube_r.png,0.1,-0.31,invalid,36,36,0,up,6.6183081999915885,None,space,0.37724529999832157,None,,,,,,,,,0,36,36,36,1803.0369737,,,,,,,,,,,,,1803.0221691000042,1803.0369737,1803.0369737,1803.0369737,1809.6662123999995,,,,1809.6841874999955,1809.6956759000022,1809.6956759000022,1809.7304041000025,1809.7310006000043,1809.7467725000024,1809.7467725000024,1809.7467725000024,1809.8300232000038,,,,,1810.1319321999908,,,,,,,,,,,,,,,,,,up,6.6183081999915885,None,space,0.37724529999832157,None,P154,001,2025-04-11_15h44.05.390,posner_endo_new1,2024.2.4,59.992788865995806,2025-04-11 15h44.11.931852 +0100,
cube_l.png,0.1,0.31,invalid,37,37,0,up,6.860879900006694,None,space,0.4068732000014279,None,,,,,,,,,0,37,37,37,1810.146362799991,,,,,,,,,,,,,1810.1324218999944,1810.146362799991,1810.146362799991,1810.146362799991,1817.0245208999986,,,,1817.0425377999927,1817.0535516999953,1817.0535516999953,1817.0893960999965,1817.089759800001,1817.105919099995,1817.105919099995,1817.105919099995,1817.189263799999,,,,,1817.5234288999927,,,,,,,,,,,,,,,,,,up,6.860879900006694,None,space,0.4068732000014279,None,P154,001,2025-04-11_15h44.05.390,posner_endo_new1,2024.2.4,59.992788865995806,2025-04-11 15h44.11.931852 +0100,
cube_l.png,0.1,0.31,invalid,38,38,0,up,8.756918200000655,None,space,0.4129955999960657,None,,,,,,,,,0,38,38,38,1817.5388325999957,,,,,,,,,,,,,1817.523720199999,1817.5388325999957,1817.5388325999957,1817.5388325999957,1826.2987496999995,,,,1826.3168380999996,1826.328425899992,1826.328425899992,1826.3627976999996,1826.363135599997,1826.3796009999933,1826.3796009999933,1826.3796009999933,1826.4630550000002,,,,,1826.798278599992,,,,,,,,,,,,,,,,,,up,8.756918200000655,None,space,0.4129955999960657,None,P154,001,2025-04-11_15h44.05.390,posner_endo_new1,2024.2.4,59.992788865995806,2025-04-11 15h44.11.931852 +0100,
cube_r.png,0.1,0.31,valid,39,39,0,up,6.091579400002956,None,space,0.40107730000454467,None,,,,,,,,,0,39,39,39,1826.812650199994,,,,,,,,,,,,,1826.7987762999983,1826.812650199994,1826.812650199994,1826.812650199994,1832.9086531999928,,,,1832.9268096000014,1832.9377217,1832.9377217,1832.9732270999957,1832.9736031999928,1832.9897163999995,1832.9897163999995,1832.9897163999995,1833.0729934999981,,,,,1833.407348599998,,,,,,,,,,,,,,,,,,up,6.091579400002956,None,space,0.40107730000454467,None,P154,001,2025-04-11_15h44.05.390,posner_endo_new1,2024.2.4,59.992788865995806,2025-04-11 15h44.11.931852 +0100,
cube_l.png,0.1,0.31,invalid,40,40,0,up,6.392683600002783,None,space,0.42194580000068527,None,,,,,,,,,0,40,40,40,1833.4225798999978,,,,,,,,,,,,,1833.407650699999,1833.4225798999978,1833.4225798999978,1833.4225798999978,1839.8170352000016,,,,1839.824305000002,1839.835607999994,1839.835607999994,1839.8827514000004,1839.8830266000004,1839.8992063000042,1839.8992063000042,1839.8992063000042,1839.9828697000048,,,,,1840.3331647000014,,,,,,,,,,,,,,,,,,up,6.392683600002783,None,space,0.42194580000068527,None,P154,001,2025-04-11_15h44.05.390,posner_endo_new1,2024.2.4,59.992788865995806,2025-04-11 15h44.11.931852 +0100,
cube_l.png,0.1,10,catch,41,41,0,up,5.739152699999977,None,None,,,,,,,,,,,0,41,41,41,1840.3487357999984,,,,,,,,,,,,,1840.3333792000049,1840.3487357999984,1840.3487357999984,1840.3487357999984,1846.0946085000032,,,,1846.111070400002,1846.122149200004,1846.122149200004,1846.1596607999963,1846.159997499999,1846.1760935999919,1846.1760935999919,1846.1760935999919,1846.2594523000007,1848.2738736000028,1849.1896735000046,1849.1896735000046,1849.1896735000046,1849.1740676999907,,,,,,,,,,,,,,,,,,up,5.739152699999977,None,None,,,P154,001,2025-04-11_15h44.05.390,posner_endo_new1,2024.2.4,59.992788865995806,2025-04-11 15h44.11.931852 +0100,
cube_l.png,0.1,-0.31,valid,42,42,0,up,3.1056954999949085,None,space,0.41957230000116397,None,,,,,,,,,0,42,42,42,1849.1896735000046,,,,,,,,,,,,,1849.1744913000002,1849.1896735000046,1849.1896735000046,1849.1896735000046,1852.3044898999942,,,,1852.3131839999987,1852.3232797999954,1852.3232797999954,1852.3699485999969,1852.3702244000015,1852.3864565999975,1852.3864565999975,1852.3864565999975,1852.4696931999933,,,,,1852.8203265000047,,,,,,,,,,,,,,,,,,up,3.1056954999949085,None,space,0.41957230000116397,None,P154,001,2025-04-11_15h44.05.390,posner_endo_new1,2024.2.4,59.992788865995806,2025-04-11 15h44.11.931852 +0100,
cube_l.png,0.1,10,catch,43,43,0,up,5.69173820001015,None,None,,,,,,,,,,,0,43,43,43,1852.8360637000005,,,,,,,,,,,,,1852.8205342,1852.8360637000005,1852.8360637000005,1852.8360637000005,1858.531109299991,,,,1858.538341499996,1858.5497133000026,1858.5497133000026,1858.5968626999966,1858.5971438999986,1858.6134382000018,1858.6134382000018,1858.6134382000018,1858.696637400004,1860.7113449000026,1861.6268100000016,1861.6268100000016,1861.6268100000016,1861.6110785999917,,,,,,,,,,,,,,,,,,up,5.69173820001015,None,None,,,P154,001,2025-04-11_15h44.05.390,posner_endo_new1,2024.2.4,59.992788865995806,2025-04-11 15h44.11.931852 +0100,
cube_l.png,0.1,0.31,invalid,44,44,0,up,3.2130028000101447,None,space,0.3945631999959005,None,,,,,,,,,0,44,44,44,1861.6268100000016,,,,,,,,,,,,,1861.6112725999992,1861.6268100000016,1861.6268100000016,1861.6268100000016,1864.8414564999985,,,,1864.8487323000008,1864.8599787999992,1864.8599787999992,1864.9070475999906,1864.907326200002,1864.9235822000046,1864.9235822000046,1864.9235822000046,1865.006919899999,,,,,1865.3242500999913,,,,,,,,,,,,,,,,,,up,3.2130028000101447,None,space,0.3945631999959005,None,P154,001,2025-04-11_15h44.05.390,posner_endo_new1,2024.2.4,59.992788865995806,2025-04-11 15h44.11.931852 +0100,
cube_l.png,0.1,0.31,invalid,45,45,0,up,10.772229599999264,None,space,0.406417500009411,None,,,,,,,,,0,45,45,45,1865.3398551999999,,,,,,,,,,,,,1865.3244625999941,1865.3398551999999,1865.3398551999999,1865.3398551999999,1876.113346500002,,,,1876.1206096999958,1876.1315966999973,1876.1315966999973,1876.1789579000033,1876.179502999992,1876.195347300003,1876.195347300003,1876.195347300003,1876.2786104999977,,,,,1876.6130082000018,,,,,,,,,,,,,,,,,,up,10.772229599999264,None,space,0.406417500009411,None,P154,001,2025-04-11_15h44.05.390,posner_endo_new1,2024.2.4,59.992788865995806,2025-04-11 15h44.11.931852 +0100,
cube_r.png,0.1,0.31,valid,46,46,0,up,6.115240400002222,None,space,0.3766567999991821,None,,,,,,,,,0,46,46,46,1876.6284472999978,,,,,,,,,,,,,1876.6133048000047,1876.6284472999978,1876.6284472999978,1876.6284472999978,1882.7565658999956,,,,1882.7673644000024,1882.7776159999921,1882.7776159999921,1882.822219900001,1882.822585499991,1882.8386802000023,1882.8386802000023,1882.8386802000023,1882.9219588999986,,,,,1883.2227417999966,,,,,,,,,,,,,,,,,,up,6.115240400002222,None,space,0.3766567999991821,None,P154,001,2025-04-11_15h44.05.390,posner_endo_new1,2024.2.4,59.992788865995806,2025-04-11 15h44.11.931852 +0100,
cube_l.png,0.1,-0.31,valid,47,47,0,up,6.217180699997698,None,space,0.3887646999937715,None,,,,,,,,,0,47,47,47,1883.2383706999972,,,,,,,,,,,,,1883.2230370000034,1883.2383706999972,1883.2383706999972,1883.2383706999972,1889.4664095999906,,,,1889.4772002999962,1889.4878776999976,1889.4878776999976,1889.5320299000014,1889.532401599994,1889.5485088999994,1889.5485088999994,1889.5485088999994,1889.631670799994,,,,,1889.9493298000016,,,,,,,,,,,,,,,,,,up,6.217180699997698,None,space,0.3887646999937715,None,P154,001,2025-04-11_15h44.05.390,posner_endo_new1,2024.2.4,59.992788865995806,2025-04-11 15h44.11.931852 +0100,
cube_r.png,0.1,-0.31,invalid,48,48,0,up,5.538804200012237,None,space,0.3727832999866223,None,,,,,,,,,0,48,48,48,1889.9647327999992,,,,,,,,,,,,,1889.9496285999921,1889.9647327999992,1889.9647327999992,1889.9647327999992,1895.5102752999956,,,,1895.521183799996,1895.5315537999995,1895.5315537999995,1895.5757981999923,1895.5761578999955,1895.5924937999953,1895.5924937999953,1895.5924937999953,1895.6754968000023,,,,,1895.9764684999973,,,,,,,,,,,,,,,,,,up,5.538804200012237,None,space,0.3727832999866223,None,P154,001,2025-04-11_15h44.05.390,posner_endo_new1,2024.2.4,59.992788865995806,2025-04-11 15h44.11.931852 +0100,
cube_r.png,0.1,10,catch,49,49,0,up,5.567921000008937,None,None,,,,,,,,,,,0,49,49,49,1895.9919047000003,,,,,,,,,,,,,1895.976752699993,1895.9919047000003,1895.9919047000003,1895.9919047000003,1901.5706372999994,,,,1901.5814280999912,1901.5918305999949,1901.5918305999949,1901.6362771999993,1901.6366386000009,1901.6527314999985,1901.6527314999985,1901.6527314999985,1901.7360524999967,1903.7506627999974,1904.666483299996,1904.666483299996,1904.666483299996,1904.6505642999982,,,,,,,,,,,,,,,,,,up,5.567921000008937,None,None,,,P154,001,2025-04-11_15h44.05.390,posner_endo_new1,2024.2.4,59.992788865995806,2025-04-11 15h44.11.931852 +0100,
cube_l.png,0.1,-0.31,valid,50,50,0,up,2.2533916999964276,None,space,0.34472029999597,None,,,,,,,,,0,50,50,50,1904.666483299996,,,,,,,,,,,,,1904.650833599997,1904.666483299996,1904.666483299996,1904.666483299996,1906.9319213999988,,,,1906.940926700001,1906.9508048999996,1906.9508048999996,1906.9973207000003,1906.9975927999913,1907.0140710999985,1907.0140710999985,1907.0140710999985,1907.097382299995,,,,,1907.3646270000027,,,,,,,,,,,,,,,,,,up,2.2533916999964276,None,space,0.34472029999597,None,P154,001,2025-04-11_15h44.05.390,posner_endo_new1,2024.2.4,59.992788865995806,2025-04-11 15h44.11.931852 +0100,
cube_l.png,0.1,-0.31,valid,51,51,0,up,7.923551300002146,None,space,0.41986009999527596,None,,,,,,,,,0,51,51,51,1907.3802508999943,,,,,,,,,,,,,1907.364832799998,1907.3802508999943,1907.3802508999943,1907.3802508999943,1915.306684199997,,,,1915.3174175000022,1915.327782799999,1915.327782799999,1915.3722613999998,1915.3726207,1915.3887562000018,1915.3887562000018,1915.3887562000018,1915.4719690999918,,,,,1915.8227979999938,,,,,,,,,,,,,,,,,,up,7.923551300002146,None,space,0.41986009999527596,None,P154,001,2025-04-11_15h44.05.390,posner_endo_new1,2024.2.4,59.992788865995806,2025-04-11 15h44.11.931852 +0100,
cube_r.png,0.1,-0.31,invalid,52,52,0,up,7.001697600004263,None,space,0.47394460000214167,None,,,,,,,,,0,52,52,52,1915.8382708999998,,,,,,,,,,,,,1915.8230876000016,1915.8382708999998,1915.8382708999998,1915.8382708999998,1922.8486013999936,,,,1922.855866400001,1922.867319099998,1922.867319099998,1922.914451100005,1922.915005799994,1922.9308726000017,1922.9308726000017,1922.9308726000017,1923.0140990999935,,,,,1923.4155251000047,,,,,,,,,,,,,,,,,,up,7.001697600004263,None,space,0.47394460000214167,None,P154,001,2025-04-11_15h44.05.390,posner_endo_new1,2024.2.4,59.992788865995806,2025-04-11 15h44.11.931852 +0100,
cube_l.png,0.1,-0.31,valid,53,53,0,up,3.2733017999998992,None,space,0.40380449999065604,None,,,,,,,,,0,53,53,53,1923.4303571999917,,,,,,,,,,,,,1923.4159906999994,1923.4303571999917,1923.4303571999917,1923.4303571999917,1926.7113891000045,,,,1926.718256799999,1926.7300987999915,1926.7300987999915,1926.777195799994,1926.7774621999997,1926.7936572000035,1926.7936572000035,1926.7936572000035,1926.8768978000007,,,,,1927.210865400004,,,,,,,,,,,,,,,,,,up,3.2733017999998992,None,space,0.40380449999065604,None,P154,001,2025-04-11_15h44.05.390,posner_endo_new1,2024.2.4,59.992788865995806,2025-04-11 15h44.11.931852 +0100,
cube_r.png,0.1,10,catch,54,54,0,up,6.885319000008167,None,None,,,,,,,,,,,0,54,54,54,1927.226571799998,,,,,,,,,,,,,1927.211069900004,1927.226571799998,1927.226571799998,1927.226571799998,1934.120379400003,,,,1934.127296199993,1934.1391203999956,1934.1391203999956,1934.1860386999906,1934.1865168999939,1934.2024816000048,1934.2024816000048,1934.2024816000048,1934.2857392000005,1936.3006701999984,1937.2158651999925,1937.2158651999925,1937.2158651999925,1937.2000151999964,,,,,,,,,,,,,,,,,,up,6.885319000008167,None,None,,,P154,001,2025-04-11_15h44.05.390,posner_endo_new1,2024.2.4,59.992788865995806,2025-04-11 15h44.11.931852 +0100,
cube_l.png,0.1,0.31,invalid,55,55,0,up,3.4319157999998424,None,space,0.4000062999984948,None,,,,,,,,,0,55,55,55,1937.2158651999925,,,,,,,,,,,,,1937.2002746999933,1937.2158651999925,1937.2158651999925,1937.2158651999925,1940.663569700002,,,,1940.6696815000032,1940.6812147000019,1940.6812147000019,1940.7293559999962,1940.729827499992,1940.7457968999952,1940.7457968999952,1940.7457968999952,1940.8290465000027,,,,,1941.1470044000016,,,,,,,,,,,,,,,,,,up,3.4319157999998424,None,space,0.4000062999984948,None,P154,001,2025-04-11_15h44.05.390,posner_endo_new1,2024.2.4,59.992788865995806,2025-04-11 15h44.11.931852 +0100,
cube_l.png,0.1,-0.31,valid,56,56,0,up,5.140939599994454,None,space,0.44258410000475124,None,,,,,,,,,0,56,56,56,1941.1623573999968,,,,,,,,,,,,,1941.1472658999992,1941.1623573999968,1941.1623573999968,1941.1623573999968,1946.3083891999995,,,,1946.3179947000026,1946.3282819000015,1946.3282819000015,1946.3738826000044,1946.3742224000016,1946.3904123999964,1946.3904123999964,1946.3904123999964,1946.4735285999923,,,,,1946.8411281000008,,,,,,,,,,,,,,,,,,up,5.140939599994454,None,space,0.44258410000475124,None,P154,001,2025-04-11_15h44.05.390,posner_endo_new1,2024.2.4,59.992788865995806,2025-04-11 15h44.11.931852 +0100,
cube_r.png,0.1,0.31,valid,57,57,0,up,5.878684499999508,None,space,0.40324539999710396,None,,,,,,,,,0,57,57,57,1946.8565200000012,,,,,,,,,,,,,1946.8413979000034,1946.8565200000012,1946.8565200000012,1946.8565200000012,1952.751648199992,,,,1952.7611651000043,1952.7711105999915,1952.7711105999915,1952.817272699991,1952.8176070999907,1952.833784699993,1952.833784699993,1952.833784699993,1952.9170254999917,,,,,1953.2511091999913,,,,,,,,,,,,,,,,,,up,5.878684499999508,None,space,0.40324539999710396,None,P154,001,2025-04-11_15h44.05.390,posner_endo_new1,2024.2.4,59.992788865995806,2025-04-11 15h44.11.931852 +0100,
cube_r.png,0.1,-0.31,invalid,58,58,0,up,5.525497700000415,None,space,0.37037689999851864,None,,,,,,,,,0,58,58,58,1953.2667161999998,,,,,,,,,,,,,1953.2513715999958,1953.2667161999998,1953.2667161999998,1953.2667161999998,1958.795500799999,,,,1958.8049577999918,1958.8152004000003,1958.8152004000003,1958.861034799993,1958.861369899998,1958.877562099995,1958.877562099995,1958.877562099995,1958.960806899995,,,,,1959.2616506999912,,,,,,,,,,,,,,,,,,up,5.525497700000415,None,space,0.37037689999851864,None,P154,001,2025-04-11_15h44.05.390,posner_endo_new1,2024.2.4,59.992788865995806,2025-04-11 15h44.11.931852 +0100,
cube_l.png,0.1,0.31,invalid,59,59,0,up,6.978008999998565,None,space,0.38498459999391343,None,,,,,,,,,0,59,59,59,1959.2773033999983,,,,,,,,,,,,,1959.2619195000007,1959.2773033999983,1959.2773033999983,1959.2773033999983,1966.2711540000018,,,,1966.280102299992,1966.2899264000007,1966.2899264000007,1966.3367283999978,1966.3369840999949,1966.3533028999955,1966.3533028999955,1966.3533028999955,1966.4364757000003,,,,,1966.753654,,,,,,,,,,,,,,,,,,up,6.978008999998565,None,space,0.38498459999391343,None,P154,001,2025-04-11_15h44.05.390,posner_endo_new1,2024.2.4,59.992788865995806,2025-04-11 15h44.11.931852 +0100,
