"participant_ID","target_y","validity","trial","phase","response","rt"
"P112",10,"catch",0,"exhale","correct",NA
"P112",10,"catch",1,"exhale","correct",NA
"P112",0.31,"invalid",2,"exhale","correct",0.378889100000379
"P112",0.31,"invalid",3,"exhale","correct",0.31301799999892
"P112",-0.31,"valid",4,"exhale","correct",0.349220199999763
"P112",-0.31,"invalid",5,"exhale","correct",0.269434699999692
"P112",0.31,"valid",6,"exhale","correct",0.281429599999683
"P112",-0.31,"invalid",7,"exhale","correct",0.434112800001458
"P112",-0.31,"valid",8,"exhale","correct",0.377111200001309
"P112",-0.31,"invalid",9,"exhale","correct",0.335162699999273
"P112",0.31,"invalid",10,"exhale","correct",0.250466200001028
"P112",-0.31,"invalid",11,"exhale","correct",0.311316600000282
"P112",0.31,"valid",12,"exhale","correct",0.330600699999195
"P112",10,"catch",13,"exhale","incorrect",0.296540499999537
"P112",-0.31,"invalid",14,"exhale","correct",0.46214449999934
"P112",-0.31,"valid",15,"exhale","correct",0.435199599998668
"P112",10,"catch",16,"exhale","correct",NA
"P112",10,"catch",17,"exhale","correct",NA
"P112",0.31,"invalid",18,"exhale","correct",0.58789760000036
"P112",10,"catch",19,"exhale","incorrect",0.319906999999148
"P112",0.31,"invalid",20,"exhale","correct",0.579778799999985
"P112",-0.31,"valid",21,"exhale","correct",0.496893699999418
"P112",0.31,"valid",22,"exhale","correct",0.4661042000007
"P112",-0.31,"invalid",23,"exhale","correct",0.405846699999529
"P112",0.31,"valid",24,"exhale","correct",0.664687000000413
"P112",-0.31,"invalid",25,"exhale","correct",0.561682699999437
"P112",-0.31,"valid",26,"exhale","correct",0.541522599998643
"P112",0.31,"valid",27,"exhale","correct",0.451461999999083
"P112",10,"catch",28,"exhale","correct",NA
"P112",0.31,"valid",29,"exhale","correct",0.6276500999993
"P112",0.31,"valid",30,"exhale","correct",0.43995410000025
"P112",-0.31,"valid",31,"exhale","correct",0.350590799998827
"P112",0.31,"valid",32,"exhale","correct",0.342180599998755
"P112",-0.31,"invalid",33,"exhale","correct",0.441492699999799
"P112",10,"catch",34,"exhale","correct",NA
"P112",0.31,"valid",35,"exhale","correct",0.608695200000511
"P112",-0.31,"invalid",36,"exhale","correct",0.477887300001385
"P112",0.31,"invalid",37,"exhale","correct",0.471124800000325
"P112",0.31,"invalid",38,"exhale","correct",0.541155400000207
"P112",0.31,"valid",39,"exhale","correct",0.522980100000495
"P112",0.31,"invalid",40,"exhale","correct",0.418121499998961
"P112",10,"catch",41,"exhale","correct",NA
"P112",-0.31,"valid",42,"exhale","correct",0.439586000000418
"P112",10,"catch",43,"exhale","correct",NA
"P112",0.31,"invalid",44,"exhale","correct",0.41757090000101
"P112",0.31,"invalid",45,"exhale","correct",0.508394999998927
"P112",0.31,"valid",46,"exhale","correct",0.540159899999708
"P112",-0.31,"valid",47,"exhale","correct",0.427822699999524
"P112",-0.31,"invalid",48,"exhale","correct",0.394617999998445
"P112",10,"catch",49,"exhale","correct",NA
"P112",-0.31,"valid",50,"exhale","correct",0.439251100000547
"P112",-0.31,"valid",51,"exhale","correct",0.352069700000357
"P112",-0.31,"invalid",52,"exhale","correct",0.414435900000171
"P112",-0.31,"valid",53,"exhale","correct",0.423585399999865
"P112",10,"catch",54,"exhale","incorrect",0.305105199999161
"P112",0.31,"invalid",55,"exhale","correct",0.59174449999955
"P112",-0.31,"valid",56,"exhale","correct",0.342950700000074
"P112",0.31,"valid",57,"exhale","correct",0.534888800000772
"P112",-0.31,"invalid",58,"exhale","correct",0.449239300000045
"P112",0.31,"invalid",59,"exhale","correct",0.539515700000265
"P112",10,"catch",0,"inhale","correct",NA
"P112",10,"catch",1,"inhale","correct",NA
"P112",0.31,"invalid",2,"inhale","correct",0.475512300001355
"P112",0.31,"invalid",3,"inhale","correct",0.379896599999483
"P112",-0.31,"valid",4,"inhale","correct",0.446421700000428
"P112",-0.31,"invalid",5,"inhale","correct",0.419961499999772
"P112",0.31,"valid",6,"inhale","correct",0.487619699999414
"P112",-0.31,"invalid",7,"inhale","correct",0.403459200000725
"P112",-0.31,"valid",8,"inhale","correct",0.399336499998753
"P112",-0.31,"invalid",9,"inhale","correct",0.394656700000269
"P112",0.31,"invalid",10,"inhale","correct",0.444260999998733
"P112",-0.31,"invalid",11,"inhale","correct",0.441463299999668
"P112",0.31,"valid",12,"inhale","correct",0.390093999998498
"P112",10,"catch",13,"inhale","correct",NA
"P112",-0.31,"invalid",14,"inhale","correct",0.466363100000308
"P112",-0.31,"valid",15,"inhale","correct",0.402738900000259
"P112",10,"catch",16,"inhale","correct",NA
"P112",10,"catch",17,"inhale","correct",NA
"P112",0.31,"invalid",18,"inhale","correct",0.527778099998613
"P112",10,"catch",19,"inhale","correct",NA
"P112",0.31,"invalid",20,"inhale","correct",0.477558500000669
"P112",-0.31,"valid",21,"inhale","correct",0.420416799999657
"P112",0.31,"valid",22,"inhale","correct",0.465219600000637
"P112",-0.31,"invalid",23,"inhale","correct",0.441591700000572
"P112",0.31,"valid",24,"inhale","correct",0.399331700000403
"P112",-0.31,"invalid",25,"inhale","correct",0.582440000000133
"P112",-0.31,"valid",26,"inhale","correct",0.421448200000668
"P112",0.31,"valid",27,"inhale","correct",0.468374300000505
"P112",10,"catch",28,"inhale","correct",NA
"P112",0.31,"valid",29,"inhale","correct",0.490368200000376
"P112",0.31,"valid",30,"inhale","correct",0.446631300001172
"P112",-0.31,"valid",31,"inhale","correct",0.380273400000078
"P112",0.31,"valid",32,"inhale","correct",0.411348699999508
"P112",-0.31,"invalid",33,"inhale","correct",0.434847000000445
"P112",10,"catch",34,"inhale","correct",NA
"P112",0.31,"valid",35,"inhale","correct",0.493219599999065
"P112",-0.31,"invalid",36,"inhale","correct",0.422088000001168
"P112",0.31,"invalid",37,"inhale","correct",0.678697499999544
"P112",0.31,"invalid",38,"inhale","correct",0.440942100000029
"P112",0.31,"valid",39,"inhale","correct",0.395786200000657
"P112",0.31,"invalid",40,"inhale","correct",0.40971510000054
"P112",10,"catch",41,"inhale","correct",NA
"P112",-0.31,"valid",42,"inhale","correct",0.777659399998811
"P112",10,"catch",43,"inhale","correct",NA
"P112",0.31,"invalid",44,"inhale","correct",0.567745000000286
"P112",0.31,"invalid",45,"inhale","correct",0.383030499999222
"P112",0.31,"valid",46,"inhale","correct",0.404597499998999
"P112",-0.31,"valid",47,"inhale","correct",0.293326300001354
"P112",-0.31,"invalid",48,"inhale","correct",0.432118600001559
"P112",10,"catch",49,"inhale","correct",NA
"P112",-0.31,"valid",50,"inhale","correct",0.405224300000555
"P112",-0.31,"valid",51,"inhale","correct",0.426897900000768
"P112",-0.31,"invalid",52,"inhale","correct",0.37245410000105
"P112",-0.31,"valid",53,"inhale","correct",0.399266300000818
"P112",10,"catch",54,"inhale","correct",NA
"P112",0.31,"invalid",55,"inhale","correct",0.457696800000122
"P112",-0.31,"valid",56,"inhale","correct",0.36639969999851
"P112",0.31,"valid",57,"inhale","correct",0.409920599999168
"P112",-0.31,"invalid",58,"inhale","correct",0.425983699999051
"P112",0.31,"invalid",59,"inhale","correct",0.454456899999059
