participant_ID,position,validity,trial,phase,response,rt
P101,catch,catch,0,inhale,correct,NA
P101,catch,catch,1,inhale,correct,NA
P101,right,invalid,2,inhale,correct,0.6154087
P101,right,invalid,3,inhale,correct,0.4375185
P101,left,valid,4,inhale,correct,0.3889531
P101,left,invalid,5,inhale,correct,0.4349179
P101,right,valid,6,inhale,correct,0.4349288
P101,left,invalid,7,inhale,correct,0.3825975
P101,left,valid,8,inhale,correct,0.3554862
P101,left,invalid,9,inhale,correct,0.3963625
P101,right,invalid,10,inhale,correct,0.4232484
P101,left,invalid,11,inhale,correct,0.411126
P101,right,valid,12,inhale,correct,0.359009
P101,catch,catch,13,inhale,correct,NA
P101,left,invalid,14,inhale,correct,0.4418752
P101,left,valid,15,inhale,correct,0.4733989
P101,catch,catch,16,inhale,correct,NA
P101,catch,catch,17,inhale,correct,NA
P101,right,invalid,18,inhale,correct,0.4979081
P101,catch,catch,19,inhale,correct,NA
P101,right,invalid,20,inhale,correct,0.4141367
P101,left,valid,21,inhale,correct,0.4063817
P101,right,valid,22,inhale,correct,0.5133851
P101,left,invalid,23,inhale,correct,0.4056457
P101,right,valid,24,inhale,correct,0.2931039
P101,left,invalid,25,inhale,correct,0.5561619
P101,left,valid,26,inhale,correct,0.353992
P101,right,valid,27,inhale,correct,0.3479937
P101,catch,catch,28,inhale,correct,NA
P101,right,valid,29,inhale,correct,0.4249698
P101,right,valid,30,inhale,correct,0.3601763
P101,left,valid,31,inhale,correct,0.3909246
P101,right,valid,32,inhale,correct,0.3312775
P101,left,invalid,33,inhale,correct,0.4545374
P101,catch,catch,34,inhale,correct,NA
P101,right,valid,35,inhale,correct,0.5023288
P101,left,invalid,36,inhale,correct,0.4075415
P101,right,invalid,37,inhale,correct,0.4034508
P101,right,invalid,38,inhale,correct,0.4643846
P101,right,valid,39,inhale,correct,0.4150601
P101,right,invalid,40,inhale,correct,0.5284895
P101,catch,catch,41,inhale,correct,NA
P101,left,valid,42,inhale,correct,0.4159472
P101,catch,catch,43,inhale,correct,NA
P101,right,invalid,44,inhale,correct,0.4362013
P101,right,invalid,45,inhale,correct,0.4884135
P101,right,valid,46,inhale,correct,0.5273398
P101,left,valid,47,inhale,correct,0.3656714
P101,left,invalid,48,inhale,correct,0.3871539
P101,catch,catch,49,inhale,correct,NA
P101,left,valid,50,inhale,correct,0.3737371
P101,left,valid,51,inhale,correct,0.4042894
P101,left,invalid,52,inhale,correct,0.3790094
P101,left,valid,53,inhale,correct,0.971749
P101,catch,catch,54,inhale,correct,NA
P101,right,invalid,55,inhale,correct,0.4463859
P101,left,valid,56,inhale,correct,0.385474
P101,right,valid,57,inhale,correct,0.4226561
P101,left,invalid,58,inhale,correct,0.3937742
P101,right,invalid,59,inhale,correct,0.4227545
P101,catch,catch,0,exhale,correct,NA
P101,catch,catch,1,exhale,correct,NA
P101,right,invalid,2,exhale,correct,0.4408701
P101,right,invalid,3,exhale,correct,0.415665
P101,left,valid,4,exhale,correct,0.4602554
P101,left,invalid,5,exhale,correct,0.4962852
P101,right,valid,6,exhale,correct,0.4731167
P101,left,invalid,7,exhale,correct,0.4263883
P101,left,valid,8,exhale,correct,0.3488038
P101,left,invalid,9,exhale,correct,0.4561317
P101,right,invalid,10,exhale,correct,0.4129762
P101,left,invalid,11,exhale,correct,0.4602463
P101,right,valid,12,exhale,correct,0.4815832
P101,catch,catch,13,exhale,correct,NA
P101,left,invalid,14,exhale,correct,0.5321825
P101,left,valid,15,exhale,correct,0.4359071
P101,catch,catch,16,exhale,correct,NA
P101,catch,catch,17,exhale,correct,NA
P101,right,invalid,18,exhale,correct,0.4879461
P101,catch,catch,19,exhale,correct,NA
P101,right,invalid,20,exhale,correct,0.5600682
P101,left,valid,21,exhale,correct,0.5045077
P101,right,valid,22,exhale,correct,0.5129282
P101,left,invalid,23,exhale,correct,0.6662579
P101,right,valid,24,exhale,correct,0.5122849
P101,left,invalid,25,exhale,correct,0.3675887
P101,left,valid,26,exhale,correct,0.63289
P101,right,valid,27,exhale,correct,0.397029
P101,catch,catch,28,exhale,correct,NA
P101,right,valid,29,exhale,correct,0.3873829
P101,right,valid,30,exhale,correct,0.3984017
P101,left,valid,31,exhale,correct,0.3643389
P101,right,valid,32,exhale,correct,0.377271
P101,left,invalid,33,exhale,correct,0.481401
P101,catch,catch,34,exhale,correct,NA
P101,right,valid,35,exhale,correct,0.4151
P101,left,invalid,36,exhale,correct,0.5439488
P101,right,invalid,37,exhale,correct,0.4840617
P101,right,invalid,38,exhale,correct,0.5369631
P101,right,valid,39,exhale,correct,0.9782623
P101,right,invalid,40,exhale,correct,0.4319302
P101,catch,catch,41,exhale,correct,NA
P101,left,valid,42,exhale,correct,0.4340171
P101,catch,catch,43,exhale,correct,NA
P101,right,invalid,44,exhale,correct,0.5362879
P101,right,invalid,45,exhale,correct,0.5066047
P101,right,valid,46,exhale,correct,0.4419176
P101,left,valid,47,exhale,correct,0.3455224
P101,left,invalid,48,exhale,correct,0.3866862
P101,catch,catch,49,exhale,correct,NA
P101,left,valid,50,exhale,correct,0.4370914
P101,left,valid,51,exhale,correct,0.5389137
P101,left,invalid,52,exhale,correct,0.4009987
P101,left,valid,53,exhale,correct,0.3600982
P101,catch,catch,54,exhale,correct,NA
P101,right,invalid,55,exhale,correct,0.4070151
P101,left,valid,56,exhale,correct,0.4123063
P101,right,valid,57,exhale,correct,0.4087405
P101,left,invalid,58,exhale,correct,0.3767621
P101,right,invalid,59,exhale,correct,0.4121186
P102,catch,catch,0,exhale,correct,NA
P102,catch,catch,1,exhale,correct,NA
P102,right,invalid,2,exhale,correct,0.4879295
P102,right,invalid,3,exhale,correct,0.4670977
P102,left,valid,4,exhale,correct,0.4303829
P102,left,invalid,5,exhale,correct,0.4948994
P102,right,valid,6,exhale,correct,0.4494721
P102,left,invalid,7,exhale,correct,0.4973964
P102,left,valid,8,exhale,correct,0.4449184
P102,left,invalid,9,exhale,correct,0.5566158
P102,right,invalid,10,exhale,correct,0.4281048
P102,left,invalid,11,exhale,correct,0.4306124
P102,right,valid,12,exhale,correct,0.4043118
P102,catch,catch,13,exhale,correct,NA
P102,left,invalid,14,exhale,correct,0.454818
P102,left,valid,15,exhale,correct,0.4510641
P102,catch,catch,16,exhale,correct,NA
P102,catch,catch,17,exhale,correct,NA
P102,right,invalid,18,exhale,correct,0.4839821
P102,catch,catch,19,exhale,correct,NA
P102,right,invalid,20,exhale,correct,0.4701218
P102,left,valid,21,exhale,correct,0.4220272
P102,right,valid,22,exhale,correct,0.4074003
P102,left,invalid,23,exhale,correct,0.4114983
P102,right,valid,24,exhale,correct,0.3835844
P102,left,invalid,25,exhale,correct,0.4298932
P102,left,valid,26,exhale,correct,0.4106204
P102,right,valid,27,exhale,correct,0.4553251
P102,catch,catch,28,exhale,correct,NA
P102,right,valid,29,exhale,correct,0.3831495
P102,right,valid,30,exhale,correct,0.4126812
P102,left,valid,31,exhale,correct,0.4208764
P102,right,valid,32,exhale,correct,0.5525257
P102,left,invalid,33,exhale,correct,0.4025063
P102,catch,catch,34,exhale,correct,NA
P102,right,valid,35,exhale,correct,0.4381537
P102,left,invalid,36,exhale,correct,0.4076877
P102,right,invalid,37,exhale,correct,0.4977908
P102,right,invalid,38,exhale,correct,0.5255966
P102,right,valid,39,exhale,correct,0.4126448
P102,right,invalid,40,exhale,correct,0.4440085
P102,catch,catch,41,exhale,correct,NA
P102,left,valid,42,exhale,correct,0.4582183
P102,catch,catch,43,exhale,correct,NA
P102,right,invalid,44,exhale,correct,0.4217364
P102,right,invalid,45,exhale,correct,0.5393908
P102,right,valid,46,exhale,correct,0.4345803
P102,left,valid,47,exhale,correct,0.4001604
P102,left,invalid,48,exhale,correct,0.4724641
P102,catch,catch,49,exhale,correct,NA
P102,left,valid,50,exhale,correct,0.3738984
P102,left,valid,51,exhale,correct,0.4392467
P102,left,invalid,52,exhale,correct,0.4724409
P102,left,valid,53,exhale,correct,0.3552966
P102,catch,catch,54,exhale,correct,NA
P102,right,invalid,55,exhale,correct,0.6163882
P102,left,valid,56,exhale,correct,0.4049873
P102,right,valid,57,exhale,correct,0.4220792
P102,left,invalid,58,exhale,correct,0.423432
P102,right,invalid,59,exhale,correct,0.4664714
P102,catch,catch,0,inhale,correct,NA
P102,catch,catch,1,inhale,correct,NA
P102,right,invalid,2,inhale,correct,0.432012
P102,right,invalid,3,inhale,correct,0.4303621
P102,left,valid,4,inhale,correct,0.3947306
P102,left,invalid,5,inhale,correct,0.4063223
P102,right,valid,6,inhale,correct,0.3614475
P102,left,invalid,7,inhale,correct,0.4421708
P102,left,valid,8,inhale,correct,0.4204441
P102,left,invalid,9,inhale,correct,0.4297896
P102,right,invalid,10,inhale,correct,0.4249385
P102,left,invalid,11,inhale,correct,0.4582217
P102,right,valid,12,inhale,correct,0.3783949
P102,catch,catch,13,inhale,correct,NA
P102,left,invalid,14,inhale,correct,0.5625517
P102,left,valid,15,inhale,correct,0.3943389
P102,catch,catch,16,inhale,correct,NA
P102,catch,catch,17,inhale,correct,NA
P102,right,invalid,18,inhale,correct,0.4980083
P102,catch,catch,19,inhale,correct,NA
P102,right,invalid,20,inhale,correct,0.4462143
P102,left,valid,21,inhale,correct,0.4878695
P102,right,valid,22,inhale,correct,0.4690466
P102,left,invalid,23,inhale,correct,0.450291
P102,right,valid,24,inhale,correct,0.3994232
P102,left,invalid,25,inhale,correct,0.3920511
P102,left,valid,26,inhale,correct,0.4616439
P102,right,valid,27,inhale,correct,0.4173625
P102,catch,catch,28,inhale,correct,NA
P102,right,valid,29,inhale,correct,0.4901516
P102,right,valid,30,inhale,correct,0.4336736
P102,left,valid,31,inhale,correct,0.4526807
P102,right,valid,32,inhale,correct,0.4159444
P102,left,invalid,33,inhale,correct,0.4267367
P102,catch,catch,34,inhale,correct,NA
P102,right,valid,35,inhale,correct,0.4165093
P102,left,invalid,36,inhale,correct,0.4691862
P102,right,invalid,37,inhale,correct,0.4095119
P102,right,invalid,38,inhale,correct,0.4198176
P102,right,valid,39,inhale,correct,0.4242928
P102,right,invalid,40,inhale,correct,0.4738512
P102,catch,catch,41,inhale,correct,NA
P102,left,valid,42,inhale,correct,0.4516145
P102,catch,catch,43,inhale,correct,NA
P102,right,invalid,44,inhale,correct,0.4269847
P102,right,invalid,45,inhale,correct,0.4012826
P102,right,valid,46,inhale,correct,0.4137162
P102,left,valid,47,inhale,correct,0.3868843
P102,left,invalid,48,inhale,correct,0.3719779
P102,catch,catch,49,inhale,correct,NA
P102,left,valid,50,inhale,correct,0.484541
P102,left,valid,51,inhale,correct,0.4821447
P102,left,invalid,52,inhale,correct,0.400666
P102,left,valid,53,inhale,correct,0.5375372
P102,catch,catch,54,inhale,correct,NA
P102,right,invalid,55,inhale,correct,0.4653424
P102,left,valid,56,inhale,correct,0.4035907
P102,right,valid,57,inhale,correct,0.4532131
P102,left,invalid,58,inhale,correct,0.3815754
P102,right,invalid,59,inhale,correct,0.3936573
P103,catch,catch,0,inhale,correct,NA
P103,catch,catch,1,inhale,correct,NA
P103,right,invalid,2,inhale,correct,0.5501076
P103,right,invalid,3,inhale,correct,0.4946882
P103,left,valid,4,inhale,correct,0.4292145
P103,left,invalid,5,inhale,correct,0.4314982
P103,right,valid,6,inhale,correct,0.3407074
P103,left,invalid,7,inhale,correct,0.4062179
P103,left,valid,8,inhale,correct,0.423892
P103,left,invalid,9,inhale,correct,0.4181109
P103,right,invalid,10,inhale,correct,0.4543889
P103,left,invalid,11,inhale,correct,0.458458
P103,right,valid,12,inhale,correct,0.4363818
P103,catch,catch,13,inhale,correct,NA
P103,left,invalid,14,inhale,correct,0.4147615
P103,left,valid,15,inhale,correct,0.4300074
P103,catch,catch,16,inhale,incorrect,0.3032789
P103,catch,catch,17,inhale,correct,NA
P103,right,invalid,18,inhale,correct,0.636816
P103,catch,catch,19,inhale,correct,NA
P103,right,invalid,20,inhale,correct,0.5120509
P103,left,valid,21,inhale,correct,0.402655
P103,right,valid,22,inhale,correct,0.460399
P103,left,invalid,23,inhale,correct,0.4662338
P103,right,valid,24,inhale,correct,0.4251843
P103,left,invalid,25,inhale,correct,0.4178613
P103,left,valid,26,inhale,correct,0.540505
P103,right,valid,27,inhale,correct,0.578637
P103,catch,catch,28,inhale,correct,NA
P103,right,valid,29,inhale,correct,0.6047765
P103,right,valid,30,inhale,correct,0.4334042
P103,left,valid,31,inhale,correct,0.4172191
P103,right,valid,32,inhale,correct,0.4414712
P103,left,invalid,33,inhale,correct,0.3383944
P103,catch,catch,34,inhale,correct,NA
P103,right,valid,35,inhale,correct,0.5397323
P103,left,invalid,36,inhale,correct,0.4463831
P103,right,invalid,37,inhale,correct,0.5434415
P103,right,invalid,38,inhale,correct,0.507954
P103,right,valid,39,inhale,correct,0.5317757
P103,right,invalid,40,inhale,correct,0.5195091
P103,catch,catch,41,inhale,correct,NA
P103,left,valid,42,inhale,correct,0.4046714
P103,catch,catch,43,inhale,correct,NA
P103,right,invalid,44,inhale,correct,0.5452129
P103,right,invalid,45,inhale,correct,0.5177433
P103,right,valid,46,inhale,correct,0.4052081
P103,left,valid,47,inhale,correct,0.3515761
P103,left,invalid,48,inhale,correct,0.3601936
P103,catch,catch,49,inhale,correct,NA
P103,left,valid,50,inhale,correct,0.4070244
P103,left,valid,51,inhale,correct,0.4879419
P103,left,invalid,52,inhale,correct,0.5066722
P103,left,valid,53,inhale,correct,0.4444844
P103,catch,catch,54,inhale,correct,NA
P103,right,invalid,55,inhale,correct,0.5555823
P103,left,valid,56,inhale,correct,0.4393944
P103,right,valid,57,inhale,correct,0.7154416
P103,left,invalid,58,inhale,correct,0.394727
P103,right,invalid,59,inhale,correct,0.5315534
P103,catch,catch,0,exhale,correct,NA
P103,catch,catch,1,exhale,correct,NA
P103,right,invalid,2,exhale,correct,0.5126471
P103,right,invalid,3,exhale,correct,0.5209741
P103,left,valid,4,exhale,correct,0.4349861
P103,left,invalid,5,exhale,correct,0.5194355
P103,right,valid,6,exhale,correct,0.9171964
P103,left,invalid,7,exhale,correct,0.4844533
P103,left,valid,8,exhale,correct,0.386023
P103,left,invalid,9,exhale,correct,0.4056235
P103,right,invalid,10,exhale,correct,0.3387335
P103,left,invalid,11,exhale,correct,0.3911343
P103,right,valid,12,exhale,correct,0.4818559
P103,catch,catch,13,exhale,correct,NA
P103,left,invalid,14,exhale,correct,0.4273452
P103,left,valid,15,exhale,correct,0.3431097
P103,catch,catch,16,exhale,correct,NA
P103,catch,catch,17,exhale,correct,NA
P103,right,invalid,18,exhale,correct,0.5655119
P103,catch,catch,19,exhale,correct,NA
P103,right,invalid,20,exhale,correct,0.7067521
P103,left,valid,21,exhale,correct,0.4066941
P103,right,valid,22,exhale,correct,0.4441429
P103,left,invalid,23,exhale,correct,0.4813391
P103,right,valid,24,exhale,correct,0.3352522
P103,left,invalid,25,exhale,correct,0.4228439
P103,left,valid,26,exhale,correct,0.4061565
P103,right,valid,27,exhale,correct,0.4783247
P103,catch,catch,28,exhale,correct,NA
P103,right,valid,29,exhale,correct,0.4848838
P103,right,valid,30,exhale,correct,0.4604946
P103,left,valid,31,exhale,correct,0.4251514
P103,right,valid,32,exhale,correct,0.3608843
P103,left,invalid,33,exhale,correct,0.4864387
P103,catch,catch,34,exhale,correct,NA
P103,right,valid,35,exhale,correct,0.4628274
P103,left,invalid,36,exhale,correct,0.6389413
P103,right,invalid,37,exhale,correct,0.4528948
P103,right,invalid,38,exhale,correct,0.5130153
P103,right,valid,39,exhale,correct,0.9315279
P103,right,invalid,40,exhale,correct,0.3677435
P103,catch,catch,41,exhale,correct,NA
P103,left,valid,42,exhale,correct,0.5310474
P103,catch,catch,43,exhale,correct,NA
P103,right,invalid,44,exhale,correct,0.4868916
P103,right,invalid,45,exhale,correct,0.462404
P103,right,valid,46,exhale,correct,0.3551137
P103,left,valid,47,exhale,correct,0.5577029
P103,left,invalid,48,exhale,correct,0.469064
P103,catch,catch,49,exhale,correct,NA
P103,left,valid,50,exhale,correct,0.3923871
P103,left,valid,51,exhale,correct,0.4671639
P103,left,invalid,52,exhale,correct,0.3827138
P103,left,valid,53,exhale,correct,0.3606745
P103,catch,catch,54,exhale,correct,NA
P103,right,invalid,55,exhale,correct,0.5575414
P103,left,valid,56,exhale,correct,0.4699513
P103,right,valid,57,exhale,correct,0.3665747
P103,left,invalid,58,exhale,correct,0.3918962
P103,right,invalid,59,exhale,correct,0.5818018
P104,catch,catch,0,exhale,correct,NA
P104,catch,catch,1,exhale,correct,NA
P104,right,invalid,2,exhale,correct,0.3530332
P104,right,invalid,3,exhale,correct,0.3342273
P104,left,valid,4,exhale,correct,0.4382418
P104,left,invalid,5,exhale,correct,0.5397545
P104,right,valid,6,exhale,correct,0.306763
P104,left,invalid,7,exhale,correct,0.3774667
P104,left,valid,8,exhale,correct,0.4286507
P104,left,invalid,9,exhale,correct,0.4437866
P104,right,invalid,10,exhale,correct,0.381962
P104,left,invalid,11,exhale,correct,0.3797453
P104,right,valid,12,exhale,correct,0.3844724
P104,catch,catch,13,exhale,correct,NA
P104,left,invalid,14,exhale,correct,0.4386846
P104,left,valid,15,exhale,correct,0.3414363
P104,catch,catch,16,exhale,correct,NA
P104,catch,catch,17,exhale,correct,NA
P104,right,invalid,18,exhale,correct,0.3466477
P104,catch,catch,19,exhale,correct,NA
P104,right,invalid,20,exhale,correct,0.3726336
P104,left,valid,21,exhale,correct,0.3733891
P104,right,valid,22,exhale,correct,0.3574016
P104,left,invalid,23,exhale,correct,0.3538634
P104,right,valid,24,exhale,correct,0.3452038
P104,left,invalid,25,exhale,correct,0.6670294
P104,left,valid,26,exhale,correct,0.4003637
P104,right,valid,27,exhale,correct,0.3614292
P104,catch,catch,28,exhale,correct,NA
P104,right,valid,29,exhale,correct,0.4387288
P104,right,valid,30,exhale,correct,0.3792654
P104,left,valid,31,exhale,correct,0.4130158
P104,right,valid,32,exhale,correct,0.4071355
P104,left,invalid,33,exhale,correct,0.3414213
P104,catch,catch,34,exhale,correct,NA
P104,right,valid,35,exhale,correct,0.5352935
P104,left,invalid,36,exhale,correct,0.6917954
P104,right,invalid,37,exhale,correct,0.369819
P104,right,invalid,38,exhale,correct,0.3441808
P104,right,valid,39,exhale,correct,0.3577575
P104,right,invalid,40,exhale,correct,0.3776298
P104,catch,catch,41,exhale,correct,NA
P104,left,valid,42,exhale,correct,0.399982
P104,catch,catch,43,exhale,correct,NA
P104,right,invalid,44,exhale,correct,0.4143862
P104,right,invalid,45,exhale,correct,0.3990456
P104,right,valid,46,exhale,correct,0.3641538
P104,left,valid,47,exhale,correct,0.3695211
P104,left,invalid,48,exhale,correct,0.411257
P104,catch,catch,49,exhale,correct,NA
P104,left,valid,50,exhale,correct,0.3240556
P104,left,valid,51,exhale,correct,0.3433212
P104,left,invalid,52,exhale,correct,0.4071075
P104,left,valid,53,exhale,correct,0.4160763
P104,catch,catch,54,exhale,correct,NA
P104,right,invalid,55,exhale,correct,0.3980212
P104,left,valid,56,exhale,correct,0.3779029
P104,right,valid,57,exhale,correct,0.3716759
P104,left,invalid,58,exhale,correct,0.3338764
P104,right,invalid,59,exhale,correct,0.3042478
P104,catch,catch,0,inhale,correct,NA
P104,catch,catch,1,inhale,correct,NA
P104,right,invalid,2,inhale,correct,0.4124433
P104,right,invalid,3,inhale,correct,0.4392281
P104,left,valid,4,inhale,correct,0.4096926
P104,left,invalid,5,inhale,correct,0.3381369
P104,right,valid,6,inhale,correct,0.3162899
P104,left,invalid,7,inhale,correct,0.3229578
P104,left,valid,8,inhale,correct,0.3027583
P104,left,invalid,9,inhale,correct,0.2772126
P104,right,invalid,10,inhale,correct,0.2801657
P104,left,invalid,11,inhale,correct,0.4896235
P104,right,valid,12,inhale,correct,0.3399287
P104,catch,catch,13,inhale,correct,NA
P104,left,invalid,14,inhale,correct,0.413806
P104,left,valid,15,inhale,correct,0.3815587
P104,catch,catch,16,inhale,correct,NA
P104,catch,catch,17,inhale,correct,NA
P104,right,invalid,18,inhale,correct,0.3971409
P104,catch,catch,19,inhale,correct,NA
P104,right,invalid,20,inhale,correct,0.3832934
P104,left,valid,21,inhale,correct,0.3742553
P104,right,valid,22,inhale,correct,0.356918
P104,left,invalid,23,inhale,correct,0.4699552
P104,right,valid,24,inhale,correct,0.3635644
P104,left,invalid,25,inhale,correct,0.3550666
P104,left,valid,26,inhale,correct,0.3158595
P104,right,valid,27,inhale,correct,0.3492854
P104,catch,catch,28,inhale,correct,NA
P104,right,valid,29,inhale,correct,0.3440035
P104,right,valid,30,inhale,correct,0.3556874
P104,left,valid,31,inhale,correct,0.3371611
P104,right,valid,32,inhale,correct,0.2766031
P104,left,invalid,33,inhale,correct,0.2891963
P104,catch,catch,34,inhale,correct,NA
P104,right,valid,35,inhale,correct,0.4972767
P104,left,invalid,36,inhale,correct,0.3579478
P104,right,invalid,37,inhale,correct,0.337543
P104,right,invalid,38,inhale,correct,0.3749097
P104,right,valid,39,inhale,correct,0.4400748
P104,right,invalid,40,inhale,correct,0.3811119
P104,catch,catch,41,inhale,correct,NA
P104,left,valid,42,inhale,correct,0.3186852
P104,catch,catch,43,inhale,correct,NA
P104,right,invalid,44,inhale,correct,0.3688455
P104,right,invalid,45,inhale,correct,0.3932582
P104,right,valid,46,inhale,correct,0.4098255
P104,left,valid,47,inhale,correct,0.3258454
P104,left,invalid,48,inhale,correct,0.242953
P104,catch,catch,49,inhale,correct,NA
P104,left,valid,50,inhale,correct,0.3254364
P104,left,valid,51,inhale,correct,0.4358525
P104,left,invalid,52,inhale,correct,0.3708223
P104,left,valid,53,inhale,correct,0.3851459
P104,catch,catch,54,inhale,correct,NA
P104,right,invalid,55,inhale,correct,0.4173612
P104,left,valid,56,inhale,correct,0.4005413
P104,right,valid,57,inhale,correct,0.4274436
P104,left,invalid,58,inhale,correct,0.4001707
P104,right,invalid,59,inhale,correct,0.337362
P105,catch,catch,0,inhale,correct,NA
P105,catch,catch,1,inhale,correct,NA
P105,right,invalid,2,inhale,correct,0.3823913
P105,right,invalid,3,inhale,correct,0.3978158
P105,left,valid,4,inhale,correct,0.3126029
P105,left,invalid,5,inhale,correct,0.370823
P105,right,valid,6,inhale,correct,0.3938764
P105,left,invalid,7,inhale,correct,0.3296248
P105,left,valid,8,inhale,correct,0.2698229
P105,left,invalid,9,inhale,correct,0.3819821
P105,right,invalid,10,inhale,correct,0.3991066
P105,left,invalid,11,inhale,correct,0.368305
P105,right,valid,12,inhale,correct,0.2611493
P105,catch,catch,13,inhale,incorrect,0.2740851
P105,left,invalid,14,inhale,correct,0.406455
P105,left,valid,15,inhale,correct,0.4088453
P105,catch,catch,16,inhale,correct,NA
P105,catch,catch,17,inhale,correct,NA
P105,right,invalid,18,inhale,correct,0.4493418
P105,catch,catch,19,inhale,correct,NA
P105,right,invalid,20,inhale,correct,0.3811552
P105,left,valid,21,inhale,correct,0.3578414
P105,right,valid,22,inhale,correct,0.395311
P105,left,invalid,23,inhale,correct,0.3593638
P105,right,valid,24,inhale,correct,0.3613339
P105,left,invalid,25,inhale,correct,0.6133392
P105,left,valid,26,inhale,correct,0.3619944
P105,right,valid,27,inhale,correct,0.3019661
P105,catch,catch,28,inhale,correct,NA
P105,right,valid,29,inhale,correct,0.3354618
P105,right,valid,30,inhale,correct,0.3462968
P105,left,valid,31,inhale,correct,0.4091114
P105,right,valid,32,inhale,correct,0.3659873
P105,left,invalid,33,inhale,correct,0.3317835
P105,catch,catch,34,inhale,correct,NA
P105,right,valid,35,inhale,correct,0.4435182
P105,left,invalid,36,inhale,correct,0.4015173
P105,right,invalid,37,inhale,correct,0.4206098
P105,right,invalid,38,inhale,correct,0.3833543
P105,right,valid,39,inhale,correct,0.3372342
P105,right,invalid,40,inhale,correct,0.3182919
P105,catch,catch,41,inhale,correct,NA
P105,left,valid,42,inhale,correct,0.3793303
P105,catch,catch,43,inhale,incorrect,0.319035
P105,right,invalid,44,inhale,correct,0.3899482
P105,right,invalid,45,inhale,correct,0.7128016
P105,right,valid,46,inhale,correct,0.3611049
P105,left,valid,47,inhale,correct,0.4519121
P105,left,invalid,48,inhale,correct,0.4827414
P105,catch,catch,49,inhale,correct,NA
P105,left,valid,50,inhale,correct,0.4293561
P105,left,valid,51,inhale,correct,0.4163081
P105,left,invalid,52,inhale,correct,0.3833119
P105,left,valid,53,inhale,correct,0.5285638
P105,catch,catch,54,inhale,correct,NA
P105,right,invalid,55,inhale,correct,0.4181605
P105,left,valid,56,inhale,correct,0.4429619
P105,right,valid,57,inhale,correct,0.350954
P105,left,invalid,58,inhale,correct,0.5170541
P105,right,invalid,59,inhale,correct,0.3507267
P105,catch,catch,0,exhale,correct,NA
P105,catch,catch,1,exhale,correct,NA
P105,right,invalid,2,exhale,correct,0.3708731
P105,right,invalid,3,exhale,correct,0.3120773
P105,left,valid,4,exhale,correct,0.5200001
P105,left,invalid,5,exhale,correct,0.3025973
P105,right,valid,6,exhale,correct,0.3877531
P105,left,invalid,7,exhale,correct,0.2852784
P105,left,valid,8,exhale,correct,0.3278582
P105,left,invalid,9,exhale,correct,0.2848451
P105,right,invalid,10,exhale,correct,0.3480848
P105,left,invalid,11,exhale,correct,0.4245799
P105,right,valid,12,exhale,correct,0.3543967
P105,catch,catch,13,exhale,incorrect,0.2975996
P105,left,invalid,14,exhale,correct,0.3960039
P105,left,valid,15,exhale,correct,0.3906791
P105,catch,catch,16,exhale,correct,NA
P105,catch,catch,17,exhale,correct,NA
P105,right,invalid,18,exhale,correct,0.4535799
P105,catch,catch,19,exhale,correct,NA
P105,right,invalid,20,exhale,correct,0.4251052
P105,left,valid,21,exhale,correct,0.3990549
P105,right,valid,22,exhale,correct,0.5185229
P105,left,invalid,23,exhale,correct,0.3516475
P105,right,valid,24,exhale,correct,0.3949076
P105,left,invalid,25,exhale,correct,0.3750336
P105,left,valid,26,exhale,correct,0.3787368
P105,right,valid,27,exhale,correct,0.4256184
P105,catch,catch,28,exhale,incorrect,0.2677595
P105,right,valid,29,exhale,correct,0.4938239
P105,right,valid,30,exhale,correct,0.4203402
P105,left,valid,31,exhale,correct,0.4966229
P105,right,valid,32,exhale,correct,0.5802738
P105,left,invalid,33,exhale,correct,0.5447346
P105,catch,catch,34,exhale,correct,NA
P105,right,valid,35,exhale,correct,0.3673749
P105,left,invalid,36,exhale,correct,0.3583199
P105,right,invalid,37,exhale,correct,0.3301253
P105,right,invalid,38,exhale,correct,0.3221355
P105,right,valid,39,exhale,correct,0.3600129
P105,right,invalid,40,exhale,correct,0.3478118
P105,catch,catch,41,exhale,incorrect,0.3785855
P105,left,valid,42,exhale,correct,0.3912993
P105,catch,catch,43,exhale,correct,NA
P105,right,invalid,44,exhale,correct,0.3318917
P105,right,invalid,45,exhale,correct,0.5511391
P105,right,valid,46,exhale,correct,0.434656
P105,left,valid,47,exhale,correct,0.3843632
P105,left,invalid,48,exhale,correct,0.4338291
P105,catch,catch,49,exhale,correct,NA
P105,left,valid,50,exhale,correct,0.6506155
P105,left,valid,51,exhale,correct,0.4364113
P105,left,invalid,52,exhale,correct,0.3577853
P105,left,valid,53,exhale,correct,0.3142117
P105,catch,catch,54,exhale,correct,NA
P105,right,invalid,55,exhale,correct,0.4180446
P105,left,valid,56,exhale,correct,0.3657123
P105,right,valid,57,exhale,correct,0.3978821
P105,left,invalid,58,exhale,correct,0.418455
P105,right,invalid,59,exhale,correct,0.3917655
P106,catch,catch,0,exhale,correct,NA
P106,catch,catch,1,exhale,correct,NA
P106,right,invalid,2,exhale,correct,0.3679568
P106,right,invalid,3,exhale,correct,0.3450504
P106,left,valid,4,exhale,correct,0.3520233
P106,left,invalid,5,exhale,correct,0.372838
P106,right,valid,6,exhale,correct,0.3114565
P106,left,invalid,7,exhale,correct,0.3475299
P106,left,valid,8,exhale,correct,0.3790463
P106,left,invalid,9,exhale,correct,0.380279
P106,right,invalid,10,exhale,correct,0.505271
P106,left,invalid,11,exhale,correct,0.4718106
P106,right,valid,12,exhale,correct,0.3440456
P106,catch,catch,13,exhale,correct,NA
P106,left,invalid,14,exhale,correct,0.3799122
P106,left,valid,15,exhale,correct,0.3768704
P106,catch,catch,16,exhale,correct,NA
P106,catch,catch,17,exhale,correct,NA
P106,right,invalid,18,exhale,correct,0.399369
P106,catch,catch,19,exhale,correct,NA
P106,right,invalid,20,exhale,correct,0.4598506
P106,left,valid,21,exhale,correct,0.4576801
P106,right,valid,22,exhale,correct,0.3715212
P106,left,invalid,23,exhale,correct,0.3792544
P106,right,valid,24,exhale,correct,0.3123665
P106,left,invalid,25,exhale,correct,0.4114554
P106,left,valid,26,exhale,correct,0.3604564
P106,right,valid,27,exhale,correct,0.3179081
P106,catch,catch,28,exhale,correct,NA
P106,right,valid,29,exhale,correct,0.3204978
P106,right,valid,30,exhale,correct,0.4040685
P106,left,valid,31,exhale,correct,0.2880063
P106,right,valid,32,exhale,correct,0.301749
P106,left,invalid,33,exhale,correct,0.3406186
P106,catch,catch,34,exhale,correct,NA
P106,right,valid,35,exhale,correct,0.356898
P106,left,invalid,36,exhale,correct,0.3074715
P106,right,invalid,37,exhale,correct,0.3070663
P106,right,invalid,38,exhale,correct,0.3573118
P106,right,valid,39,exhale,correct,0.3455773
P106,right,invalid,40,exhale,correct,0.3798407
P106,catch,catch,41,exhale,correct,NA
P106,left,valid,42,exhale,correct,0.3505224
P106,catch,catch,43,exhale,correct,NA
P106,right,invalid,44,exhale,correct,0.358318
P106,right,invalid,45,exhale,correct,0.377684
P106,right,valid,46,exhale,correct,0.2961357
P106,left,valid,47,exhale,correct,0.3937243
P106,left,invalid,48,exhale,correct,0.2634309
P106,catch,catch,49,exhale,correct,NA
P106,left,valid,50,exhale,correct,0.3693024
P106,left,valid,51,exhale,correct,0.2788784
P106,left,invalid,52,exhale,correct,0.2958663
P106,left,valid,53,exhale,correct,0.3056675
P106,catch,catch,54,exhale,correct,NA
P106,right,invalid,55,exhale,correct,0.3276125
P106,left,valid,56,exhale,correct,0.7076485
P106,right,valid,57,exhale,correct,0.4441704
P106,left,invalid,58,exhale,correct,0.2611089
P106,right,invalid,59,exhale,correct,0.2940464
P106,catch,catch,0,inhale,correct,NA
P106,catch,catch,1,inhale,correct,NA
P106,right,invalid,2,inhale,correct,0.5250721
P106,right,invalid,3,inhale,correct,0.3842936
P106,left,valid,4,inhale,correct,0.3704797
P106,left,invalid,5,inhale,correct,0.2878909
P106,right,valid,6,inhale,correct,0.3051764
P106,left,invalid,7,inhale,correct,0.3892842
P106,left,valid,8,inhale,correct,0.3090035
P106,left,invalid,9,inhale,correct,0.3982454
P106,right,invalid,10,inhale,correct,0.4435321
P106,left,invalid,11,inhale,correct,1.4009605
P106,right,valid,12,inhale,correct,0.3325015
P106,catch,catch,13,inhale,incorrect,0.3205065
P106,left,invalid,14,inhale,correct,0.3742425
P106,left,valid,15,inhale,correct,0.7080201
P106,catch,catch,16,inhale,correct,NA
P106,catch,catch,17,inhale,correct,NA
P106,right,invalid,18,inhale,correct,0.6565409
P106,catch,catch,19,inhale,correct,NA
P106,right,invalid,20,inhale,correct,0.4737186
P106,left,valid,21,inhale,correct,0.4089852
P106,right,valid,22,inhale,correct,0.3782784
P106,left,invalid,23,inhale,correct,0.3774939
P106,right,valid,24,inhale,correct,0.3844836
P106,left,invalid,25,inhale,correct,0.3621545
P106,left,valid,26,inhale,correct,0.3784079
P106,right,valid,27,inhale,correct,0.3793097
P106,catch,catch,28,inhale,correct,NA
P106,right,valid,29,inhale,correct,0.3340139
P106,right,valid,30,inhale,correct,0.4409767
P106,left,valid,31,inhale,correct,0.3005522
P106,right,valid,32,inhale,correct,0.3854598
P106,left,invalid,33,inhale,correct,0.3535402
P106,catch,catch,34,inhale,incorrect,0.3235725
P106,right,valid,35,inhale,correct,0.3531967
P106,left,invalid,36,inhale,correct,0.3080517
P106,right,invalid,37,inhale,correct,0.3208201
P106,right,invalid,38,inhale,correct,0.396091
P106,right,valid,39,inhale,correct,0.4005744
P106,right,invalid,40,inhale,correct,0.4434318
P106,catch,catch,41,inhale,correct,NA
P106,left,valid,42,inhale,correct,0.7075029
P106,catch,catch,43,inhale,incorrect,0.400979
P106,right,invalid,44,inhale,correct,0.3572175
P106,right,invalid,45,inhale,correct,0.3216639
P106,right,valid,46,inhale,correct,0.4293245
P106,left,valid,47,inhale,correct,0.2848248
P106,left,invalid,48,inhale,correct,0.4000935
P106,catch,catch,49,inhale,correct,NA
P106,left,valid,50,inhale,correct,0.3896276
P106,left,valid,51,inhale,correct,0.3089166
P106,left,invalid,52,inhale,correct,0.5952644
P106,left,valid,53,inhale,correct,0.4438623
P106,catch,catch,54,inhale,correct,NA
P106,right,invalid,55,inhale,correct,0.4526819
P106,left,valid,56,inhale,correct,0.3336607
P106,right,valid,57,inhale,correct,0.5730286
P106,left,invalid,58,inhale,correct,0.3842999
P106,right,invalid,59,inhale,correct,0.5019118
P107,catch,catch,0,inhale,incorrect,0.3061971
P107,catch,catch,1,inhale,correct,NA
P107,right,invalid,2,inhale,correct,0.4133184
P107,right,invalid,3,inhale,correct,0.3374364
P107,left,valid,4,inhale,correct,0.4034934
P107,left,invalid,5,inhale,correct,0.3265961
P107,right,valid,6,inhale,correct,0.4938186
P107,left,invalid,7,inhale,correct,0.4554689
P107,left,valid,8,inhale,correct,0.3613139
P107,left,invalid,9,inhale,correct,0.5106246
P107,right,invalid,10,inhale,correct,0.31439
P107,left,invalid,11,inhale,correct,0.2760325
P107,right,valid,12,inhale,correct,0.446597
P107,catch,catch,13,inhale,correct,NA
P107,left,invalid,14,inhale,correct,0.4076252
P107,left,valid,15,inhale,correct,0.9826167
P107,catch,catch,16,inhale,correct,NA
P107,catch,catch,17,inhale,correct,NA
P107,right,invalid,18,inhale,correct,0.4817456
P107,catch,catch,19,inhale,correct,NA
P107,right,invalid,20,inhale,correct,0.3505397
P107,left,valid,21,inhale,correct,0.3896739
P107,right,valid,22,inhale,correct,0.3201325
P107,left,invalid,23,inhale,correct,0.3661839
P107,right,valid,24,inhale,correct,0.4741174
P107,left,invalid,25,inhale,correct,0.337393
P107,left,valid,26,inhale,correct,0.3043199
P107,right,valid,27,inhale,correct,0.4379183
P107,catch,catch,28,inhale,correct,NA
P107,right,valid,29,inhale,correct,0.4344589
P107,right,valid,30,inhale,correct,0.4513944
P107,left,valid,31,inhale,correct,0.4786242
P107,right,valid,32,inhale,correct,0.3300792
P107,left,invalid,33,inhale,correct,0.3431994
P107,catch,catch,34,inhale,correct,NA
P107,right,valid,35,inhale,correct,0.3760267
P107,left,invalid,36,inhale,correct,0.400626
P107,right,invalid,37,inhale,correct,0.3364097
P107,right,invalid,38,inhale,correct,0.4341638
P107,right,valid,39,inhale,correct,0.3373179
P107,right,invalid,40,inhale,correct,0.4153519
P107,catch,catch,41,inhale,correct,NA
P107,left,valid,42,inhale,correct,0.3973359
P107,catch,catch,43,inhale,correct,NA
P107,right,invalid,44,inhale,correct,0.3651296
P107,right,invalid,45,inhale,correct,0.3434384
P107,right,valid,46,inhale,correct,0.3520215
P107,left,valid,47,inhale,correct,0.4985397
P107,left,invalid,48,inhale,correct,0.457003
P107,catch,catch,49,inhale,correct,NA
P107,left,valid,50,inhale,correct,0.4069051
P107,left,valid,51,inhale,correct,0.4813283
P107,left,invalid,52,inhale,correct,0.5002397
P107,left,valid,53,inhale,correct,0.3112284
P107,catch,catch,54,inhale,correct,NA
P107,right,invalid,55,inhale,correct,0.384654
P107,left,valid,56,inhale,correct,0.4127384
P107,right,valid,57,inhale,correct,0.5177037
P107,left,invalid,58,inhale,correct,0.3939337
P107,right,invalid,59,inhale,correct,0.3331009
P107,catch,catch,0,exhale,correct,NA
P107,catch,catch,1,exhale,incorrect,0.3256667
P107,right,invalid,2,exhale,correct,0.4893246
P107,right,invalid,3,exhale,correct,0.3890596
P107,left,valid,4,exhale,correct,0.4796028
P107,left,invalid,5,exhale,correct,0.4125496
P107,right,valid,6,exhale,correct,0.4105587
P107,left,invalid,7,exhale,correct,0.3759609
P107,left,valid,8,exhale,correct,0.3384237
P107,left,invalid,9,exhale,correct,0.360827
P107,right,invalid,10,exhale,correct,0.3422799
P107,left,invalid,11,exhale,correct,0.3312212
P107,right,valid,12,exhale,correct,0.2531771
P107,catch,catch,13,exhale,correct,NA
P107,left,invalid,14,exhale,correct,0.397279
P107,left,valid,15,exhale,correct,0.3741289
P107,catch,catch,16,exhale,correct,NA
P107,catch,catch,17,exhale,correct,NA
P107,right,invalid,18,exhale,correct,0.4006795
P107,catch,catch,19,exhale,correct,NA
P107,right,invalid,20,exhale,correct,0.4934722
P107,left,valid,21,exhale,correct,0.3715842
P107,right,valid,22,exhale,correct,0.6185011
P107,left,invalid,23,exhale,correct,0.4535521
P107,right,valid,24,exhale,correct,0.3703432
P107,left,invalid,25,exhale,correct,0.4536111
P107,left,valid,26,exhale,correct,0.3604908
P107,right,valid,27,exhale,correct,0.3719571
P107,catch,catch,28,exhale,correct,NA
P107,right,valid,29,exhale,correct,0.3732362
P107,right,valid,30,exhale,correct,0.3980375
P107,left,valid,31,exhale,correct,0.4049982
P107,right,valid,32,exhale,correct,0.3526711
P107,left,invalid,33,exhale,correct,0.4412905
P107,catch,catch,34,exhale,correct,NA
P107,right,valid,35,exhale,correct,0.3756513
P107,left,invalid,36,exhale,correct,0.5380524
P107,right,invalid,37,exhale,correct,0.3478223
P107,right,invalid,38,exhale,correct,0.4087282
P107,right,valid,39,exhale,correct,0.3414639
P107,right,invalid,40,exhale,correct,0.4661743
P107,catch,catch,41,exhale,correct,NA
P107,left,valid,42,exhale,correct,0.3140226
P107,catch,catch,43,exhale,incorrect,0.2975557
P107,right,invalid,44,exhale,correct,0.3959725
P107,right,invalid,45,exhale,correct,0.3665342
P107,right,valid,46,exhale,correct,0.4344956
P107,left,valid,47,exhale,correct,0.427587
P107,left,invalid,48,exhale,correct,0.4542423
P107,catch,catch,49,exhale,correct,NA
P107,left,valid,50,exhale,correct,0.3194075
P107,left,valid,51,exhale,correct,0.3992307
P107,left,invalid,52,exhale,correct,0.3795999
P107,left,valid,53,exhale,correct,0.3585952
P107,catch,catch,54,exhale,correct,NA
P107,right,invalid,55,exhale,correct,0.3213266
P107,left,valid,56,exhale,correct,0.3827415
P107,right,valid,57,exhale,correct,0.3385222
P107,left,invalid,58,exhale,correct,0.3472197
P107,right,invalid,59,exhale,correct,0.3901734
P108,catch,catch,0,exhale,correct,NA
P108,catch,catch,1,exhale,correct,NA
P108,right,invalid,2,exhale,correct,0.3471389
P108,right,invalid,3,exhale,correct,0.6047675
P108,left,valid,4,exhale,correct,0.2445182
P108,left,invalid,5,exhale,correct,0.2439479
P108,right,valid,6,exhale,correct,0.4313497
P108,left,invalid,7,exhale,correct,0.2786891
P108,left,valid,8,exhale,correct,0.2316558
P108,left,invalid,9,exhale,correct,0.1426866
P108,right,invalid,10,exhale,correct,0.336239
P108,left,invalid,11,exhale,correct,0.3145563
P108,right,valid,12,exhale,correct,0.2585369
P108,catch,catch,13,exhale,correct,NA
P108,left,invalid,14,exhale,correct,0.3202623
P108,left,valid,15,exhale,correct,0.369302
P108,catch,catch,16,exhale,incorrect,0.3499741
P108,catch,catch,17,exhale,correct,NA
P108,right,invalid,18,exhale,correct,0.4730996
P108,catch,catch,19,exhale,correct,NA
P108,right,invalid,20,exhale,correct,0.3849568
P108,left,valid,21,exhale,correct,0.3981714
P108,right,valid,22,exhale,correct,0.283755
P108,left,invalid,23,exhale,correct,0.3059242
P108,right,valid,24,exhale,correct,0.3233445
P108,left,invalid,25,exhale,correct,0.440775
P108,left,valid,26,exhale,correct,1.722953
P108,right,valid,27,exhale,correct,0.3169332
P108,catch,catch,28,exhale,incorrect,0.3339663
P108,right,valid,29,exhale,correct,0.4248849
P108,right,valid,30,exhale,correct,0.4421445
P108,left,valid,31,exhale,correct,0.4064221
P108,right,valid,32,exhale,correct,0.2348202
P108,left,invalid,33,exhale,correct,0.4343957
P108,catch,catch,34,exhale,incorrect,0.3212876
P108,right,valid,35,exhale,correct,0.578332
P108,left,invalid,36,exhale,correct,0.3915178
P108,right,invalid,37,exhale,correct,0.5005297
P108,right,invalid,38,exhale,correct,0.3368632
P108,right,valid,39,exhale,correct,0.2858391
P108,right,invalid,40,exhale,correct,0.3558239
P108,catch,catch,41,exhale,correct,NA
P108,left,valid,42,exhale,correct,0.3627222
P108,catch,catch,43,exhale,correct,NA
P108,right,invalid,44,exhale,correct,0.3988853
P108,right,invalid,45,exhale,correct,0.4190369
P108,right,valid,46,exhale,correct,0.3157196
P108,left,valid,47,exhale,correct,0.3488101
P108,left,invalid,48,exhale,correct,0.7741608
P108,catch,catch,49,exhale,incorrect,0.3588795
P108,left,valid,50,exhale,correct,0.4023403
P108,left,valid,51,exhale,correct,0.3772267
P108,left,invalid,52,exhale,correct,0.39865
P108,left,valid,53,exhale,correct,0.5301667
P108,catch,catch,54,exhale,correct,NA
P108,right,invalid,55,exhale,correct,0.4870914
P108,left,valid,56,exhale,correct,0.359024
P108,right,valid,57,exhale,correct,0.3915187
P108,left,invalid,58,exhale,correct,0.3417399
P108,right,invalid,59,exhale,correct,0.338244
P108,catch,catch,0,inhale,correct,NA
P108,catch,catch,1,inhale,correct,NA
P108,right,invalid,2,inhale,correct,0.4928615
P108,right,invalid,3,inhale,correct,0.4462658
P108,left,valid,4,inhale,correct,0.3175829
P108,left,invalid,5,inhale,correct,0.3012768
P108,right,valid,6,inhale,correct,0.2691212
P108,left,invalid,7,inhale,correct,0.2763243
P108,left,valid,8,inhale,correct,0.3684493
P108,left,invalid,9,inhale,correct,0.3079236
P108,right,invalid,10,inhale,correct,0.3274173
P108,left,invalid,11,inhale,correct,0.2387126
P108,right,valid,12,inhale,correct,0.2908022
P108,catch,catch,13,inhale,correct,NA
P108,left,invalid,14,inhale,correct,0.4576453
P108,left,valid,15,inhale,correct,0.3777911
P108,catch,catch,16,inhale,incorrect,0.3366021
P108,catch,catch,17,inhale,correct,NA
P108,right,invalid,18,inhale,correct,0.518818
P108,catch,catch,19,inhale,correct,NA
P108,right,invalid,20,inhale,correct,0.4126258
P108,left,valid,21,inhale,correct,0.5361846
P108,right,valid,22,inhale,correct,0.3190879
P108,left,invalid,23,inhale,correct,0.3295614
P108,right,valid,24,inhale,correct,0.3931847
P108,left,invalid,25,inhale,correct,0.3012436
P108,left,valid,26,inhale,correct,0.3015619
P108,right,valid,27,inhale,correct,0.2814677
P108,catch,catch,28,inhale,incorrect,0.3365955
P108,right,valid,29,inhale,correct,0.3845348
P108,right,valid,30,inhale,correct,0.3471772
P108,left,valid,31,inhale,correct,0.3186155
P108,right,valid,32,inhale,correct,0.2943789
P108,left,invalid,33,inhale,correct,0.3233076
P108,catch,catch,34,inhale,correct,NA
P108,right,valid,35,inhale,correct,0.7713504
P108,left,invalid,36,inhale,correct,0.3897229
P108,right,invalid,37,inhale,correct,0.3465527
P108,right,invalid,38,inhale,correct,0.3675429
P108,right,valid,39,inhale,correct,0.2373899
P108,right,invalid,40,inhale,correct,0.3484516
P108,catch,catch,41,inhale,correct,NA
P108,left,valid,42,inhale,correct,0.3041633
P108,catch,catch,43,inhale,correct,NA
P108,right,invalid,44,inhale,correct,0.3905408
P108,right,invalid,45,inhale,correct,0.549935
P108,right,valid,46,inhale,correct,0.4027335
P108,left,valid,47,inhale,correct,0.367965
P108,left,invalid,48,inhale,correct,0.3713682
P108,catch,catch,49,inhale,correct,NA
P108,left,valid,50,inhale,correct,0.3191845
P108,left,valid,51,inhale,correct,0.2953952
P108,left,invalid,52,inhale,correct,0.355
P108,left,valid,53,inhale,correct,0.2216922
P108,catch,catch,54,inhale,incorrect,0.3471713
P108,right,invalid,55,inhale,correct,0.3771744
P108,left,valid,56,inhale,correct,0.3899455
P108,right,valid,57,inhale,correct,0.2715427
P108,left,invalid,58,inhale,correct,0.2972367
P108,right,invalid,59,inhale,correct,0.4109508
P109,catch,catch,0,inhale,correct,NA
P109,catch,catch,1,inhale,correct,NA
P109,right,invalid,2,inhale,correct,0.387574
P109,right,invalid,3,inhale,correct,0.2919691
P109,left,valid,4,inhale,correct,0.3515507
P109,left,invalid,5,inhale,correct,0.2963903
P109,right,valid,6,inhale,correct,0.3112773
P109,left,invalid,7,inhale,correct,0.2829708
P109,left,valid,8,inhale,correct,0.3811586
P109,left,invalid,9,inhale,correct,0.3400186
P109,right,invalid,10,inhale,correct,0.455349
P109,left,invalid,11,inhale,correct,0.3531713
P109,right,valid,12,inhale,correct,0.3275023
P109,catch,catch,13,inhale,incorrect,0.2259319
P109,left,invalid,14,inhale,correct,0.2505374
P109,left,valid,15,inhale,correct,0.3540711
P109,catch,catch,16,inhale,incorrect,0.2737196
P109,catch,catch,17,inhale,correct,NA
P109,right,invalid,18,inhale,correct,0.3603743
P109,catch,catch,19,inhale,correct,NA
P109,right,invalid,20,inhale,correct,0.3927622
P109,left,valid,21,inhale,correct,0.5124168
P109,right,valid,22,inhale,correct,0.5106859
P109,left,invalid,23,inhale,correct,0.4464145
P109,right,valid,24,inhale,correct,0.3523782
P109,left,invalid,25,inhale,correct,0.3165944
P109,left,valid,26,inhale,correct,0.2958595
P109,right,valid,27,inhale,correct,0.3128385
P109,catch,catch,28,inhale,correct,NA
P109,right,valid,29,inhale,correct,0.382628
P109,right,valid,30,inhale,correct,0.334306
P109,left,valid,31,inhale,correct,0.3284697
P109,right,valid,32,inhale,correct,0.5379627
P109,left,invalid,33,inhale,correct,0.3851765
P109,catch,catch,34,inhale,correct,NA
P109,right,valid,35,inhale,correct,0.3085283
P109,left,invalid,36,inhale,correct,0.4506474
P109,right,invalid,37,inhale,correct,0.4891735
P109,right,invalid,38,inhale,correct,0.19056
P109,right,valid,39,inhale,correct,0.3185896
P109,right,invalid,40,inhale,correct,0.3028168
P109,catch,catch,41,inhale,correct,NA
P109,left,valid,42,inhale,correct,0.3570882
P109,catch,catch,43,inhale,correct,NA
P109,right,invalid,44,inhale,correct,0.3640389
P109,right,invalid,45,inhale,correct,0.4962209
P109,right,valid,46,inhale,correct,0.3797987
P109,left,valid,47,inhale,correct,0.4665745
P109,left,invalid,48,inhale,correct,0.2839125
P109,catch,catch,49,inhale,incorrect,0.1842553
P109,left,valid,50,inhale,correct,0.5117448
P109,left,valid,51,inhale,correct,0.4052105
P109,left,invalid,52,inhale,correct,0.415061
P109,left,valid,53,inhale,correct,0.358642
P109,catch,catch,54,inhale,correct,NA
P109,right,invalid,55,inhale,correct,0.2647417
P109,left,valid,56,inhale,correct,0.3058179
P109,right,valid,57,inhale,correct,0.268232
P109,left,invalid,58,inhale,correct,0.2531751
P109,right,invalid,59,inhale,correct,0.3157129
P109,catch,catch,0,exhale,correct,NA
P109,catch,catch,1,exhale,correct,NA
P109,right,invalid,2,exhale,correct,0.4269092
P109,right,invalid,3,exhale,correct,0.3930872
P109,left,valid,4,exhale,correct,0.4372845
P109,left,invalid,5,exhale,correct,0.5544103
P109,right,valid,6,exhale,correct,0.3897955
P109,left,invalid,7,exhale,correct,0.2847557
P109,left,valid,8,exhale,correct,0.42722
P109,left,invalid,9,exhale,correct,0.2809531
P109,right,invalid,10,exhale,correct,0.3366353
P109,left,invalid,11,exhale,correct,0.2591462
P109,right,valid,12,exhale,correct,0.2653297
P109,catch,catch,13,exhale,correct,NA
P109,left,invalid,14,exhale,correct,0.2665036
P109,left,valid,15,exhale,correct,0.4119014
P109,catch,catch,16,exhale,correct,NA
P109,catch,catch,17,exhale,incorrect,0.2423993
P109,right,invalid,18,exhale,correct,0.3166394
P109,catch,catch,19,exhale,incorrect,0.3217382
P109,right,invalid,20,exhale,correct,0.4142191
P109,left,valid,21,exhale,correct,0.3641881
P109,right,valid,22,exhale,correct,0.3070283
P109,left,invalid,23,exhale,correct,0.3412698
P109,right,valid,24,exhale,correct,0.3773074
P109,left,invalid,25,exhale,correct,0.3430091
P109,left,valid,26,exhale,correct,0.4840186
P109,right,valid,27,exhale,correct,0.5316022
P109,catch,catch,28,exhale,correct,NA
P109,right,valid,29,exhale,correct,0.3660194
P109,right,valid,30,exhale,correct,0.4780187
P109,left,valid,31,exhale,correct,0.3907477
P109,right,valid,32,exhale,correct,0.3110317
P109,left,invalid,33,exhale,correct,0.3403076
P109,catch,catch,34,exhale,incorrect,0.305945
P109,right,valid,35,exhale,correct,0.3610688
P109,left,invalid,36,exhale,correct,0.4289181
P109,right,invalid,37,exhale,correct,0.365072
P109,right,invalid,38,exhale,correct,0.3599338
P109,right,valid,39,exhale,correct,0.297243
P109,right,invalid,40,exhale,correct,0.3426659
P109,catch,catch,41,exhale,correct,NA
P109,left,valid,42,exhale,correct,0.3007004
P109,catch,catch,43,exhale,correct,NA
P109,right,invalid,44,exhale,correct,0.4208469
P109,right,invalid,45,exhale,correct,0.4211594
P109,right,valid,46,exhale,correct,0.4815715
P109,left,valid,47,exhale,correct,0.2913083
P109,left,invalid,48,exhale,correct,0.2721208
P109,catch,catch,49,exhale,correct,NA
P109,left,valid,50,exhale,correct,0.9245272
P109,left,valid,51,exhale,correct,0.4673578
P109,left,invalid,52,exhale,correct,0.436893
P109,left,valid,53,exhale,correct,0.6556923
P109,catch,catch,54,exhale,incorrect,0.2853687
P109,right,invalid,55,exhale,correct,0.3379842
P109,left,valid,56,exhale,correct,0.3810104
P109,right,valid,57,exhale,correct,0.3096208
P109,left,invalid,58,exhale,correct,0.432979
P109,right,invalid,59,exhale,correct,0.4484816
P110,catch,catch,0,exhale,correct,NA
P110,catch,catch,1,exhale,correct,NA
P110,right,invalid,2,exhale,correct,0.6284559
P110,right,invalid,3,exhale,correct,0.5787306
P110,left,valid,4,exhale,correct,0.4130709
P110,left,invalid,5,exhale,correct,0.4450395
P110,right,valid,6,exhale,correct,0.3512377
P110,left,invalid,7,exhale,correct,0.3505534
P110,left,valid,8,exhale,correct,0.6790583
P110,left,invalid,9,exhale,correct,0.4517382
P110,right,invalid,10,exhale,correct,0.684883
P110,left,invalid,11,exhale,correct,0.5082797
P110,right,valid,12,exhale,correct,0.4481373
P110,catch,catch,13,exhale,correct,NA
P110,left,invalid,14,exhale,correct,0.422299
P110,left,valid,15,exhale,correct,0.4224668
P110,catch,catch,16,exhale,correct,NA
P110,catch,catch,17,exhale,correct,NA
P110,right,invalid,18,exhale,correct,0.5213092
P110,catch,catch,19,exhale,correct,NA
P110,right,invalid,20,exhale,correct,0.4822464
P110,left,valid,21,exhale,correct,0.5529196
P110,right,valid,22,exhale,correct,0.7064528
P110,left,invalid,23,exhale,correct,0.4986393
P110,right,valid,24,exhale,correct,0.4568629
P110,left,invalid,25,exhale,correct,0.4132655
P110,left,valid,26,exhale,correct,0.4477799
P110,right,valid,27,exhale,correct,0.3968544
P110,catch,catch,28,exhale,correct,NA
P110,right,valid,29,exhale,correct,0.50072
P110,right,valid,30,exhale,correct,0.5260434
P110,left,valid,31,exhale,correct,0.522262
P110,right,valid,32,exhale,correct,0.504421
P110,left,invalid,33,exhale,correct,0.3795783
P110,catch,catch,34,exhale,correct,NA
P110,right,valid,35,exhale,correct,0.4808761
P110,left,invalid,36,exhale,correct,0.4964803
P110,right,invalid,37,exhale,correct,0.4445395
P110,right,invalid,38,exhale,correct,0.4970117
P110,right,valid,39,exhale,correct,0.4984848
P110,right,invalid,40,exhale,correct,0.62211
P110,catch,catch,41,exhale,correct,NA
P110,left,valid,42,exhale,correct,0.4724864
P110,catch,catch,43,exhale,correct,NA
P110,right,invalid,44,exhale,correct,0.4840205
P110,right,invalid,45,exhale,correct,0.522183
P110,right,valid,46,exhale,correct,0.5599532
P110,left,valid,47,exhale,correct,0.5202351
P110,left,invalid,48,exhale,correct,0.4303861
P110,catch,catch,49,exhale,correct,NA
P110,left,valid,50,exhale,correct,0.4315113
P110,left,valid,51,exhale,correct,0.4363176
P110,left,invalid,52,exhale,correct,0.4777755
P110,left,valid,53,exhale,correct,0.4600154
P110,catch,catch,54,exhale,correct,NA
P110,right,invalid,55,exhale,correct,0.4994863
P110,left,valid,56,exhale,correct,0.4721425
P110,right,valid,57,exhale,correct,0.3860448
P110,left,invalid,58,exhale,correct,0.4119244
P110,right,invalid,59,exhale,correct,0.5548731
P110,catch,catch,0,inhale,correct,NA
P110,catch,catch,1,inhale,correct,NA
P110,right,invalid,2,inhale,correct,0.4672777
P110,right,invalid,3,inhale,correct,0.4570033
P110,left,valid,4,inhale,correct,0.4096897
P110,left,invalid,5,inhale,correct,0.4237676
P110,right,valid,6,inhale,correct,0.4612533
P110,left,invalid,7,inhale,correct,0.3112991
P110,left,valid,8,inhale,correct,0.4068124
P110,left,invalid,9,inhale,correct,0.4565231
P110,right,invalid,10,inhale,correct,0.3447505
P110,left,invalid,11,inhale,correct,0.5155469
P110,right,valid,12,inhale,correct,0.3859777
P110,catch,catch,13,inhale,correct,NA
P110,left,invalid,14,inhale,correct,0.4353731
P110,left,valid,15,inhale,correct,0.4673302
P110,catch,catch,16,inhale,correct,NA
P110,catch,catch,17,inhale,correct,NA
P110,right,invalid,18,inhale,correct,0.4740767
P110,catch,catch,19,inhale,correct,NA
P110,right,invalid,20,inhale,correct,0.4569125
P110,left,valid,21,inhale,correct,0.4460491
P110,right,valid,22,inhale,correct,0.6247251
P110,left,invalid,23,inhale,correct,0.4773864
P110,right,valid,24,inhale,correct,0.420054
P110,left,invalid,25,inhale,correct,0.444499
P110,left,valid,26,inhale,correct,0.5059515
P110,right,valid,27,inhale,correct,0.4402124
P110,catch,catch,28,inhale,correct,NA
P110,right,valid,29,inhale,correct,0.4621049
P110,right,valid,30,inhale,correct,0.476666
P110,left,valid,31,inhale,correct,0.4769965
P110,right,valid,32,inhale,correct,1.0164986
P110,left,invalid,33,inhale,correct,0.4113038
P110,catch,catch,34,inhale,correct,NA
P110,right,valid,35,inhale,correct,0.4416863
P110,left,invalid,36,inhale,correct,0.4725145
P110,right,invalid,37,inhale,correct,0.48133
P110,right,invalid,38,inhale,correct,0.6942912
P110,right,valid,39,inhale,correct,0.4781147
P110,right,invalid,40,inhale,correct,0.3932126
P110,catch,catch,41,inhale,correct,NA
P110,left,valid,42,inhale,correct,0.5199276
P110,catch,catch,43,inhale,correct,NA
P110,right,invalid,44,inhale,correct,0.4581797
P110,right,invalid,45,inhale,correct,0.650304
P110,right,valid,46,inhale,correct,0.465059
P110,left,valid,47,inhale,correct,0.4546391
P110,left,invalid,48,inhale,correct,0.4985961
P110,catch,catch,49,inhale,correct,NA
P110,left,valid,50,inhale,correct,0.4782545
P110,left,valid,51,inhale,correct,0.4636372
P110,left,invalid,52,inhale,correct,0.4839325
P110,left,valid,53,inhale,correct,0.9911871
P110,catch,catch,54,inhale,correct,NA
P110,right,invalid,55,inhale,correct,0.4899407
P110,left,valid,56,inhale,correct,0.4277057
P110,right,valid,57,inhale,correct,0.4692446
P110,left,invalid,58,inhale,correct,0.4210938
P110,right,invalid,59,inhale,correct,0.9396866
P111,catch,catch,0,inhale,correct,NA
P111,catch,catch,1,inhale,correct,NA
P111,right,invalid,2,inhale,correct,0.5381395
P111,right,invalid,3,inhale,correct,0.5211455
P111,left,valid,4,inhale,correct,0.4747101
P111,left,invalid,5,inhale,correct,0.4759779
P111,right,valid,6,inhale,correct,0.4077834
P111,left,invalid,7,inhale,correct,0.4057358
P111,left,valid,8,inhale,correct,0.4110962
P111,left,invalid,9,inhale,correct,0.4833843
P111,right,invalid,10,inhale,correct,0.4422767
P111,left,invalid,11,inhale,correct,0.4625858
P111,right,valid,12,inhale,correct,0.4271544
P111,catch,catch,13,inhale,correct,NA
P111,left,invalid,14,inhale,correct,0.4253547
P111,left,valid,15,inhale,correct,0.4660429
P111,catch,catch,16,inhale,correct,NA
P111,catch,catch,17,inhale,correct,NA
P111,right,invalid,18,inhale,correct,0.4656681
P111,catch,catch,19,inhale,correct,NA
P111,right,invalid,20,inhale,correct,0.4635147
P111,left,valid,21,inhale,correct,0.456507
P111,right,valid,22,inhale,correct,0.4703284
P111,left,invalid,23,inhale,correct,0.4323945
P111,right,valid,24,inhale,correct,0.4447803
P111,left,invalid,25,inhale,correct,0.4507455
P111,left,valid,26,inhale,correct,0.3884473
P111,right,valid,27,inhale,correct,0.3718368
P111,catch,catch,28,inhale,correct,NA
P111,right,valid,29,inhale,correct,0.3862801
P111,right,valid,30,inhale,correct,0.4723791
P111,left,valid,31,inhale,correct,0.4304028
P111,right,valid,32,inhale,correct,0.4107182
P111,left,invalid,33,inhale,correct,0.46286
P111,catch,catch,34,inhale,correct,NA
P111,right,valid,35,inhale,correct,0.4621002
P111,left,invalid,36,inhale,correct,0.4266787
P111,right,invalid,37,inhale,correct,0.5369301
P111,right,invalid,38,inhale,correct,0.4840786
P111,right,valid,39,inhale,correct,0.56675
P111,right,invalid,40,inhale,correct,0.4461352
P111,catch,catch,41,inhale,correct,NA
P111,left,valid,42,inhale,correct,0.391423
P111,catch,catch,43,inhale,correct,NA
P111,right,invalid,44,inhale,correct,0.4139261
P111,right,invalid,45,inhale,correct,0.4378883
P111,right,valid,46,inhale,correct,0.4544194
P111,left,valid,47,inhale,correct,0.4578584
P111,left,invalid,48,inhale,correct,0.3870506
P111,catch,catch,49,inhale,correct,NA
P111,left,valid,50,inhale,correct,0.4547624
P111,left,valid,51,inhale,correct,0.5262964
P111,left,invalid,52,inhale,correct,0.5142132
P111,left,valid,53,inhale,correct,0.4561643
P111,catch,catch,54,inhale,correct,NA
P111,right,invalid,55,inhale,correct,0.4567787
P111,left,valid,56,inhale,correct,0.466096
P111,right,valid,57,inhale,correct,0.4297448
P111,left,invalid,58,inhale,correct,0.4652671
P111,right,invalid,59,inhale,correct,0.4352578
P111,catch,catch,0,exhale,correct,NA
P111,catch,catch,1,exhale,correct,NA
P111,right,invalid,2,exhale,correct,0.5260357
P111,right,invalid,3,exhale,correct,0.5459865
P111,left,valid,4,exhale,correct,0.504307
P111,left,invalid,5,exhale,correct,0.4762903
P111,right,valid,6,exhale,correct,0.3690817
P111,left,invalid,7,exhale,correct,0.4587504
P111,left,valid,8,exhale,correct,0.4673416
P111,left,invalid,9,exhale,correct,0.6804493
P111,right,invalid,10,exhale,correct,0.8167872
P111,left,invalid,11,exhale,correct,0.5353869
P111,right,valid,12,exhale,correct,0.4400431
P111,catch,catch,13,exhale,correct,NA
P111,left,invalid,14,exhale,correct,0.5923114
P111,left,valid,15,exhale,correct,0.4785773
P111,catch,catch,16,exhale,correct,NA
P111,catch,catch,17,exhale,correct,NA
P111,right,invalid,18,exhale,correct,0.5245225
P111,catch,catch,19,exhale,correct,NA
P111,right,invalid,20,exhale,correct,0.5126547
P111,left,valid,21,exhale,correct,0.5585718
P111,right,valid,22,exhale,correct,0.4507485
P111,left,invalid,23,exhale,correct,0.618687
P111,right,valid,24,exhale,correct,0.6409426
P111,left,invalid,25,exhale,correct,0.8568233
P111,left,valid,26,exhale,correct,0.8162595
P111,right,valid,27,exhale,correct,0.5400648
P111,catch,catch,28,exhale,correct,NA
P111,right,valid,29,exhale,correct,0.7244884
P111,right,valid,30,exhale,correct,0.6062207
P111,left,valid,31,exhale,correct,0.4266247
P111,right,valid,32,exhale,correct,0.4869702
P111,left,invalid,33,exhale,correct,0.7608219
P111,catch,catch,34,exhale,correct,NA
P111,right,valid,35,exhale,correct,0.5272833
P111,left,invalid,36,exhale,correct,0.5382897
P111,right,invalid,37,exhale,correct,0.5232759
P111,right,invalid,38,exhale,correct,0.4886689
P111,right,valid,39,exhale,correct,0.4045514
P111,right,invalid,40,exhale,correct,0.4131827
P111,catch,catch,41,exhale,correct,NA
P111,left,valid,42,exhale,correct,0.4040594
P111,catch,catch,43,exhale,correct,NA
P111,right,invalid,44,exhale,correct,0.4554788
P111,right,invalid,45,exhale,correct,0.4767567
P111,right,valid,46,exhale,correct,0.6885012
P111,left,valid,47,exhale,correct,0.7171663
P111,left,invalid,48,exhale,correct,0.7752756
P111,catch,catch,49,exhale,correct,NA
P111,left,valid,50,exhale,correct,0.4242323
P111,left,valid,51,exhale,correct,0.4305004
P111,left,invalid,52,exhale,correct,0.4620315
P111,left,valid,53,exhale,correct,0.6528746
P111,catch,catch,54,exhale,correct,NA
P111,right,invalid,55,exhale,correct,0.5422391
P111,left,valid,56,exhale,correct,0.3902681
P111,right,valid,57,exhale,correct,0.6908853
P111,left,invalid,58,exhale,correct,0.6818845
P111,right,invalid,59,exhale,correct,0.5975306
P112,catch,catch,0,exhale,correct,NA
P112,catch,catch,1,exhale,correct,NA
P112,right,invalid,2,exhale,correct,0.4260176
P112,right,invalid,3,exhale,correct,0.3559521
P112,left,valid,4,exhale,correct,0.4045633
P112,left,invalid,5,exhale,correct,0.4944856
P112,right,valid,6,exhale,correct,0.3629533
P112,left,invalid,7,exhale,correct,0.3812154
P112,left,valid,8,exhale,correct,0.5485837
P112,left,invalid,9,exhale,correct,0.3836666
P112,right,invalid,10,exhale,correct,0.3151506
P112,left,invalid,11,exhale,correct,0.3051519
P112,right,valid,12,exhale,correct,0.5556713
P112,catch,catch,13,exhale,correct,NA
P112,left,invalid,14,exhale,correct,0.5159064
P112,left,valid,15,exhale,correct,0.4191369
P112,catch,catch,16,exhale,correct,NA
P112,catch,catch,17,exhale,correct,NA
P112,right,invalid,18,exhale,correct,0.4227099
P112,catch,catch,19,exhale,correct,NA
P112,right,invalid,20,exhale,correct,0.5213509
P112,left,valid,21,exhale,correct,0.5589391
P112,right,valid,22,exhale,correct,0.3850926
P112,left,invalid,23,exhale,correct,0.3979417
P112,right,valid,24,exhale,correct,0.3441064
P112,left,invalid,25,exhale,correct,0.4283417
P112,left,valid,26,exhale,correct,0.4195339
P112,right,valid,27,exhale,correct,0.4191705
P112,catch,catch,28,exhale,correct,NA
P112,right,valid,29,exhale,correct,0.4654702
P112,right,valid,30,exhale,correct,0.3204195
P112,left,valid,31,exhale,correct,0.4547026
P112,right,valid,32,exhale,correct,0.2636795
P112,left,invalid,33,exhale,correct,0.4310922
P112,catch,catch,34,exhale,incorrect,0.3281173
P112,right,valid,35,exhale,correct,0.4290473
P112,left,invalid,36,exhale,correct,0.350688
P112,right,invalid,37,exhale,correct,0.3227399
P112,right,invalid,38,exhale,correct,0.3468867
P112,right,valid,39,exhale,correct,0.3282842
P112,right,invalid,40,exhale,correct,0.4204854
P112,catch,catch,41,exhale,correct,NA
P112,left,valid,42,exhale,correct,0.4552131
P112,catch,catch,43,exhale,correct,NA
P112,right,invalid,44,exhale,correct,0.4505127
P112,right,invalid,45,exhale,correct,0.3809672
P112,right,valid,46,exhale,correct,0.3672634
P112,left,valid,47,exhale,correct,0.3159986
P112,left,invalid,48,exhale,correct,0.42178
P112,catch,catch,49,exhale,correct,NA
P112,left,valid,50,exhale,correct,0.4852169
P112,left,valid,51,exhale,correct,0.538365
P112,left,invalid,52,exhale,correct,0.4632981
P112,left,valid,53,exhale,correct,0.5042932
P112,catch,catch,54,exhale,correct,NA
P112,right,invalid,55,exhale,correct,0.4173716
P112,left,valid,56,exhale,correct,0.4763123
P112,right,valid,57,exhale,correct,0.3697114
P112,left,invalid,58,exhale,correct,0.5118839
P112,right,invalid,59,exhale,correct,0.395932
P112,catch,catch,0,inhale,correct,NA
P112,catch,catch,1,inhale,correct,NA
P112,right,invalid,2,inhale,correct,0.4534524
P112,right,invalid,3,inhale,correct,0.4672006
P112,left,valid,4,inhale,correct,0.32328
P112,left,invalid,5,inhale,correct,0.475452
P112,right,valid,6,inhale,correct,0.3571936
P112,left,invalid,7,inhale,correct,0.323057
P112,left,valid,8,inhale,correct,0.3831533
P112,left,invalid,9,inhale,correct,0.4564325
P112,right,invalid,10,inhale,correct,0.3290542
P112,left,invalid,11,inhale,correct,0.3677133
P112,right,valid,12,inhale,correct,0.3075185
P112,catch,catch,13,inhale,correct,NA
P112,left,invalid,14,inhale,correct,0.5200383
P112,left,valid,15,inhale,correct,0.3414563
P112,catch,catch,16,inhale,correct,NA
P112,catch,catch,17,inhale,correct,NA
P112,right,invalid,18,inhale,correct,0.5170855
P112,catch,catch,19,inhale,correct,NA
P112,right,invalid,20,inhale,correct,0.4583262
P112,left,valid,21,inhale,correct,0.3672315
P112,right,valid,22,inhale,correct,0.2851481
P112,left,invalid,23,inhale,correct,0.3184043
P112,right,valid,24,inhale,correct,0.3375553
P112,left,invalid,25,inhale,correct,0.4051398
P112,left,valid,26,inhale,correct,0.5367643
P112,right,valid,27,inhale,correct,0.4224057
P112,catch,catch,28,inhale,correct,NA
P112,right,valid,29,inhale,correct,0.5815635
P112,right,valid,30,inhale,correct,0.3972522
P112,left,valid,31,inhale,correct,0.5114376
P112,right,valid,32,inhale,correct,0.3246772
P112,left,invalid,33,inhale,correct,0.3505679
P112,catch,catch,34,inhale,incorrect,0.2338087
P112,right,valid,35,inhale,correct,0.3149781
P112,left,invalid,36,inhale,correct,0.2903354
P112,right,invalid,37,inhale,correct,0.349477
P112,right,invalid,38,inhale,correct,0.2897444
P112,right,valid,39,inhale,correct,0.3800864
P112,right,invalid,40,inhale,correct,0.389943
P112,catch,catch,41,inhale,correct,NA
P112,left,valid,42,inhale,correct,0.5416615
P112,catch,catch,43,inhale,correct,NA
P112,right,invalid,44,inhale,correct,0.3970943
P112,right,invalid,45,inhale,correct,0.3412506
P112,right,valid,46,inhale,correct,0.3872568
P112,left,valid,47,inhale,correct,0.574209
P112,left,invalid,48,inhale,correct,0.3113496
P112,catch,catch,49,inhale,incorrect,0.280799
P112,left,valid,50,inhale,correct,0.3911531
P112,left,valid,51,inhale,correct,0.3826175
P112,left,invalid,52,inhale,correct,0.3014371
P112,left,valid,53,inhale,correct,0.3268292
P112,catch,catch,54,inhale,correct,NA
P112,right,invalid,55,inhale,correct,0.5299222
P112,left,valid,56,inhale,correct,0.3599309
P112,right,valid,57,inhale,correct,0.26665
P112,left,invalid,58,inhale,correct,0.3238617
P112,right,invalid,59,inhale,correct,0.3646826
P113,catch,catch,0,inhale,correct,NA
P113,catch,catch,1,inhale,correct,NA
P113,right,invalid,2,inhale,correct,0.3995851
P113,right,invalid,3,inhale,correct,0.3639951
P113,left,valid,4,inhale,correct,0.3632352
P113,left,invalid,5,inhale,correct,0.3648477
P113,right,valid,6,inhale,correct,0.3563948
P113,left,invalid,7,inhale,correct,0.3661763
P113,left,valid,8,inhale,correct,0.413783
P113,left,invalid,9,inhale,correct,0.3424091
P113,right,invalid,10,inhale,correct,0.3456152
P113,left,invalid,11,inhale,correct,0.5176139
P113,right,valid,12,inhale,correct,0.3777544
P113,catch,catch,13,inhale,correct,NA
P113,left,invalid,14,inhale,correct,0.3898059
P113,left,valid,15,inhale,correct,0.3819705
P113,catch,catch,16,inhale,correct,NA
P113,catch,catch,17,inhale,correct,NA
P113,right,invalid,18,inhale,correct,0.370937
P113,catch,catch,19,inhale,correct,NA
P113,right,invalid,20,inhale,correct,0.3592209
P113,left,valid,21,inhale,correct,0.3340244
P113,right,valid,22,inhale,correct,0.3155452
P113,left,invalid,23,inhale,correct,0.3588318
P113,right,valid,24,inhale,correct,0.3424682
P113,left,invalid,25,inhale,correct,0.3666492
P113,left,valid,26,inhale,correct,0.3408659
P113,right,valid,27,inhale,correct,0.3756145
P113,catch,catch,28,inhale,correct,NA
P113,right,valid,29,inhale,correct,0.3973136
P113,right,valid,30,inhale,correct,0.3625673
P113,left,valid,31,inhale,correct,0.3792947
P113,right,valid,32,inhale,correct,0.323338
P113,left,invalid,33,inhale,correct,0.409034
P113,catch,catch,34,inhale,correct,NA
P113,right,valid,35,inhale,correct,0.3302154
P113,left,invalid,36,inhale,correct,0.3629504
P113,right,invalid,37,inhale,correct,0.3514103
P113,right,invalid,38,inhale,correct,0.4383718
P113,right,valid,39,inhale,correct,0.3924556
P113,right,invalid,40,inhale,correct,0.3881358
P113,catch,catch,41,inhale,correct,NA
P113,left,valid,42,inhale,correct,0.3293448
P113,catch,catch,43,inhale,correct,NA
P113,right,invalid,44,inhale,correct,0.3416848
P113,right,invalid,45,inhale,correct,0.3611651
P113,right,valid,46,inhale,correct,0.422618
P113,left,valid,47,inhale,correct,0.3822772
P113,left,invalid,48,inhale,correct,0.3829978
P113,catch,catch,49,inhale,incorrect,0.3092721
P113,left,valid,50,inhale,correct,0.3801468
P113,left,valid,51,inhale,correct,0.3857909
P113,left,invalid,52,inhale,correct,0.408916
P113,left,valid,53,inhale,correct,0.5604545
P113,catch,catch,54,inhale,correct,NA
P113,right,invalid,55,inhale,correct,0.3900294
P113,left,valid,56,inhale,correct,0.3939963
P113,right,valid,57,inhale,correct,0.356687
P113,left,invalid,58,inhale,correct,0.3515751
P113,right,invalid,59,inhale,correct,0.3325844
P113,catch,catch,0,exhale,correct,NA
P113,catch,catch,1,exhale,correct,NA
P113,right,invalid,2,exhale,correct,0.5185949
P113,right,invalid,3,exhale,correct,0.3395647
P113,left,valid,4,exhale,correct,0.3936262
P113,left,invalid,5,exhale,correct,0.5021273
P113,right,valid,6,exhale,correct,0.4924398
P113,left,invalid,7,exhale,correct,0.3646235
P113,left,valid,8,exhale,correct,0.3620876
P113,left,invalid,9,exhale,correct,0.3820915
P113,right,invalid,10,exhale,correct,0.4362694
P113,left,invalid,11,exhale,correct,0.4645955
P113,right,valid,12,exhale,correct,0.38652
P113,catch,catch,13,exhale,correct,NA
P113,left,invalid,14,exhale,correct,0.3635564
P113,left,valid,15,exhale,correct,0.386804
P113,catch,catch,16,exhale,correct,NA
P113,catch,catch,17,exhale,correct,NA
P113,right,invalid,18,exhale,correct,0.3486305
P113,catch,catch,19,exhale,correct,NA
P113,right,invalid,20,exhale,correct,0.363849
P113,left,valid,21,exhale,correct,0.462832
P113,right,valid,22,exhale,correct,0.3251064
P113,left,invalid,23,exhale,correct,0.3850616
P113,right,valid,24,exhale,correct,0.3704042
P113,left,invalid,25,exhale,correct,0.3616773
P113,left,valid,26,exhale,correct,0.4391424
P113,right,valid,27,exhale,correct,0.4204264
P113,catch,catch,28,exhale,correct,NA
P113,right,valid,29,exhale,correct,0.3294372
P113,right,valid,30,exhale,correct,0.402813
P113,left,valid,31,exhale,correct,0.4024688
P113,right,valid,32,exhale,correct,0.4678399
P113,left,invalid,33,exhale,correct,0.3980407
P113,catch,catch,34,exhale,correct,NA
P113,right,valid,35,exhale,correct,0.3793928
P113,left,invalid,36,exhale,correct,0.5468832
P113,right,invalid,37,exhale,correct,0.3654061
P113,right,invalid,38,exhale,correct,0.2779139
P113,right,valid,39,exhale,correct,0.3754265
P113,right,invalid,40,exhale,correct,0.3848353
P113,catch,catch,41,exhale,correct,NA
P113,left,valid,42,exhale,correct,0.4139856
P113,catch,catch,43,exhale,correct,NA
P113,right,invalid,44,exhale,correct,0.3925764
P113,right,invalid,45,exhale,correct,0.4038688
P113,right,valid,46,exhale,correct,0.3486486
P113,left,valid,47,exhale,correct,0.3364528
P113,left,invalid,48,exhale,correct,0.3469498
P113,catch,catch,49,exhale,incorrect,0.3082436
P113,left,valid,50,exhale,correct,0.3696255
P113,left,valid,51,exhale,correct,0.3872909
P113,left,invalid,52,exhale,correct,0.39124
P113,left,valid,53,exhale,correct,0.3412027
P113,catch,catch,54,exhale,correct,NA
P113,right,invalid,55,exhale,correct,0.4616124
P113,left,valid,56,exhale,correct,0.3654666
P113,right,valid,57,exhale,correct,0.3781629
P113,left,invalid,58,exhale,correct,0.4005061
P113,right,invalid,59,exhale,correct,0.5609272
P114,catch,catch,0,exhale,incorrect,0.2877799
P114,catch,catch,1,exhale,correct,NA
P114,right,invalid,2,exhale,correct,0.3111663
P114,right,invalid,3,exhale,correct,0.3026002
P114,left,valid,4,exhale,correct,0.3464241
P114,left,invalid,5,exhale,correct,0.3521063
P114,right,valid,6,exhale,correct,0.3515197
P114,left,invalid,7,exhale,correct,0.3301315
P114,left,valid,8,exhale,correct,0.3376819
P114,left,invalid,9,exhale,correct,0.3510305
P114,right,invalid,10,exhale,correct,0.3611767
P114,left,invalid,11,exhale,correct,0.2510708
P114,right,valid,12,exhale,correct,0.355822
P114,catch,catch,13,exhale,incorrect,0.2900087
P114,left,invalid,14,exhale,correct,0.4051316
P114,left,valid,15,exhale,correct,0.4406189
P114,catch,catch,16,exhale,correct,NA
P114,catch,catch,17,exhale,incorrect,0.3878306
P114,right,invalid,18,exhale,correct,0.3889563
P114,catch,catch,19,exhale,correct,NA
P114,right,invalid,20,exhale,correct,0.3900335
P114,left,valid,21,exhale,correct,0.491328
P114,right,valid,22,exhale,correct,0.3347296
P114,left,invalid,23,exhale,correct,0.350579
P114,right,valid,24,exhale,correct,0.5304429
P114,left,invalid,25,exhale,correct,0.4012504
P114,left,valid,26,exhale,correct,0.3064094
P114,right,valid,27,exhale,correct,0.3168902
P114,catch,catch,28,exhale,correct,NA
P114,right,valid,29,exhale,correct,0.3738425
P114,right,valid,30,exhale,correct,0.5921621
P114,left,valid,31,exhale,correct,0.436663
P114,right,valid,32,exhale,correct,0.440846
P114,left,invalid,33,exhale,correct,0.3987476
P114,catch,catch,34,exhale,correct,NA
P114,right,valid,35,exhale,correct,0.3750156
P114,left,invalid,36,exhale,correct,0.4323411
P114,right,invalid,37,exhale,correct,0.3835082
P114,right,invalid,38,exhale,correct,0.3721139
P114,right,valid,39,exhale,correct,0.3748727
P114,right,invalid,40,exhale,correct,0.5101063
P114,catch,catch,41,exhale,correct,NA
P114,left,valid,42,exhale,correct,0.3671534
P114,catch,catch,43,exhale,correct,NA
P114,right,invalid,44,exhale,correct,0.4648021
P114,right,invalid,45,exhale,correct,0.4193506
P114,right,valid,46,exhale,correct,0.4040341
P114,left,valid,47,exhale,correct,0.368594
P114,left,invalid,48,exhale,correct,0.3848193
P114,catch,catch,49,exhale,correct,NA
P114,left,valid,50,exhale,correct,0.4160376
P114,left,valid,51,exhale,correct,0.4559247
P114,left,invalid,52,exhale,correct,0.4586538
P114,left,valid,53,exhale,correct,0.3467408
P114,catch,catch,54,exhale,correct,NA
P114,right,invalid,55,exhale,correct,0.4146028
P114,left,valid,56,exhale,correct,0.3854232
P114,right,valid,57,exhale,correct,0.325532
P114,left,invalid,58,exhale,correct,0.3824351
P114,right,invalid,59,exhale,correct,0.4973337
P114,catch,catch,0,inhale,correct,NA
P114,catch,catch,1,inhale,correct,NA
P114,right,invalid,2,inhale,correct,0.3515608
P114,right,invalid,3,inhale,correct,0.3581062
P114,left,valid,4,inhale,correct,0.325989
P114,left,invalid,5,inhale,correct,0.3386712
P114,right,valid,6,inhale,correct,0.3103592
P114,left,invalid,7,inhale,correct,0.3320583
P114,left,valid,8,inhale,correct,0.3559818
P114,left,invalid,9,inhale,correct,0.3975644
P114,right,invalid,10,inhale,correct,0.4084037
P114,left,invalid,11,inhale,correct,0.5034683
P114,right,valid,12,inhale,correct,0.4060032
P114,catch,catch,13,inhale,incorrect,0.3406979
P114,left,invalid,14,inhale,correct,0.3488489
P114,left,valid,15,inhale,correct,0.3818896
P114,catch,catch,16,inhale,incorrect,0.3150536
P114,catch,catch,17,inhale,correct,NA
P114,right,invalid,18,inhale,correct,0.4064426
P114,catch,catch,19,inhale,correct,NA
P114,right,invalid,20,inhale,correct,0.3552496
P114,left,valid,21,inhale,correct,0.4429693
P114,right,valid,22,inhale,correct,0.5116013
P114,left,invalid,23,inhale,correct,0.3761982
P114,right,valid,24,inhale,correct,0.3528431
P114,left,invalid,25,inhale,correct,0.3680287
P114,left,valid,26,inhale,correct,0.4286141
P114,right,valid,27,inhale,correct,0.3906025
P114,catch,catch,28,inhale,correct,NA
P114,right,valid,29,inhale,correct,0.3528437
P114,right,valid,30,inhale,correct,0.385306
P114,left,valid,31,inhale,correct,0.5052281
P114,right,valid,32,inhale,correct,0.41336
P114,left,invalid,33,inhale,correct,0.440942
P114,catch,catch,34,inhale,correct,NA
P114,right,valid,35,inhale,correct,0.4008407
P114,left,invalid,36,inhale,correct,0.3878868
P114,right,invalid,37,inhale,correct,0.4172285
P114,right,invalid,38,inhale,correct,0.4237403
P114,right,valid,39,inhale,correct,0.3718049
P114,right,invalid,40,inhale,correct,0.3551166
P114,catch,catch,41,inhale,correct,NA
P114,left,valid,42,inhale,correct,0.3622709
P114,catch,catch,43,inhale,correct,NA
P114,right,invalid,44,inhale,correct,0.3114172
P114,right,invalid,45,inhale,correct,0.4442197
P114,right,valid,46,inhale,correct,0.373184
P114,left,valid,47,inhale,correct,0.2984467
P114,left,invalid,48,inhale,correct,0.3985364
P114,catch,catch,49,inhale,correct,NA
P114,left,valid,50,inhale,correct,0.3536372
P114,left,valid,51,inhale,correct,0.3649351
P114,left,invalid,52,inhale,correct,0.3806246
P114,left,valid,53,inhale,correct,0.2649278
P114,catch,catch,54,inhale,correct,NA
P114,right,invalid,55,inhale,correct,0.4414539
P114,left,valid,56,inhale,correct,0.3438825
P114,right,valid,57,inhale,correct,0.3888425
P114,left,invalid,58,inhale,correct,0.3650573
P114,right,invalid,59,inhale,correct,0.3718631
P115,catch,catch,0,inhale,correct,NA
P115,catch,catch,1,inhale,correct,NA
P115,right,invalid,2,inhale,correct,0.5048171
P115,right,invalid,3,inhale,correct,0.430318
P115,left,valid,4,inhale,correct,0.4107695
P115,left,invalid,5,inhale,correct,0.4616055
P115,right,valid,6,inhale,correct,0.3821626
P115,left,invalid,7,inhale,correct,0.3875454
P115,left,valid,8,inhale,correct,0.3784075
P115,left,invalid,9,inhale,correct,0.5836839
P115,right,invalid,10,inhale,correct,0.4206403
P115,left,invalid,11,inhale,correct,0.5234127
P115,right,valid,12,inhale,correct,0.4919095
P115,catch,catch,13,inhale,correct,NA
P115,left,invalid,14,inhale,correct,0.4813946
P115,left,valid,15,inhale,correct,0.4201013
P115,catch,catch,16,inhale,correct,NA
P115,catch,catch,17,inhale,correct,NA
P115,right,invalid,18,inhale,correct,0.5581414
P115,catch,catch,19,inhale,correct,NA
P115,right,invalid,20,inhale,correct,0.3806566
P115,left,valid,21,inhale,correct,0.6343862
P115,right,valid,22,inhale,correct,0.4509661
P115,left,invalid,23,inhale,correct,0.4721563
P115,right,valid,24,inhale,correct,0.4141169
P115,left,invalid,25,inhale,correct,0.3971665
P115,left,valid,26,inhale,correct,0.3774771
P115,right,valid,27,inhale,correct,0.4399676
P115,catch,catch,28,inhale,correct,NA
P115,right,valid,29,inhale,correct,0.4841826
P115,right,valid,30,inhale,correct,0.4615997
P115,left,valid,31,inhale,correct,0.4445711
P115,right,valid,32,inhale,correct,0.5476918
P115,left,invalid,33,inhale,correct,0.4650891
P115,catch,catch,34,inhale,correct,NA
P115,right,valid,35,inhale,correct,0.5303433
P115,left,invalid,36,inhale,correct,0.4184107
P115,right,invalid,37,inhale,correct,0.4122744
P115,right,invalid,38,inhale,correct,0.3777367
P115,right,valid,39,inhale,correct,0.5239944
P115,right,invalid,40,inhale,correct,0.4443214
P115,catch,catch,41,inhale,correct,NA
P115,left,valid,42,inhale,correct,0.4450137
P115,catch,catch,43,inhale,correct,NA
P115,right,invalid,44,inhale,correct,0.5052407
P115,right,invalid,45,inhale,correct,0.5491288
P115,right,valid,46,inhale,correct,0.5551481
P115,left,valid,47,inhale,correct,0.4586757
P115,left,invalid,48,inhale,correct,0.4952382
P115,catch,catch,49,inhale,correct,NA
P115,left,valid,50,inhale,correct,0.573227
P115,left,valid,51,inhale,correct,0.5251139
P115,left,invalid,52,inhale,correct,0.4866292
P115,left,valid,53,inhale,correct,0.5319759
P115,catch,catch,54,inhale,correct,NA
P115,right,invalid,55,inhale,correct,0.5782905
P115,left,valid,56,inhale,correct,0.6127846
P115,right,valid,57,inhale,correct,0.5564983
P115,left,invalid,58,inhale,correct,0.6970111
P115,right,invalid,59,inhale,correct,0.8760687
P115,catch,catch,0,exhale,correct,NA
P115,catch,catch,1,exhale,correct,NA
P115,right,invalid,2,exhale,correct,0.4231915
P115,right,invalid,3,exhale,correct,0.382717
P115,left,valid,4,exhale,correct,0.2974967
P115,left,invalid,5,exhale,correct,0.3981458
P115,right,valid,6,exhale,correct,0.480039
P115,left,invalid,7,exhale,correct,0.3434945
P115,left,valid,8,exhale,correct,0.3977532
P115,left,invalid,9,exhale,correct,0.3710081
P115,right,invalid,10,exhale,correct,0.3732495
P115,left,invalid,11,exhale,correct,0.4423728
P115,right,valid,12,exhale,correct,0.5358772
P115,catch,catch,13,exhale,correct,NA
P115,left,invalid,14,exhale,correct,0.334156
P115,left,valid,15,exhale,correct,0.4140394
P115,catch,catch,16,exhale,correct,NA
P115,catch,catch,17,exhale,correct,NA
P115,right,invalid,18,exhale,correct,0.448529
P115,catch,catch,19,exhale,correct,NA
P115,right,invalid,20,exhale,correct,0.3605413
P115,left,valid,21,exhale,correct,0.4782973
P115,right,valid,22,exhale,correct,0.4453355
P115,left,invalid,23,exhale,correct,0.4639828
P115,right,valid,24,exhale,correct,0.4416747
P115,left,invalid,25,exhale,correct,0.4463781
P115,left,valid,26,exhale,correct,0.4011306
P115,right,valid,27,exhale,correct,0.393565
P115,catch,catch,28,exhale,correct,NA
P115,right,valid,29,exhale,correct,0.4358997
P115,right,valid,30,exhale,correct,0.4299134
P115,left,valid,31,exhale,correct,0.3609117
P115,right,valid,32,exhale,correct,0.4889736
P115,left,invalid,33,exhale,correct,0.5266487
P115,catch,catch,34,exhale,correct,NA
P115,right,valid,35,exhale,correct,0.3770573
P115,left,invalid,36,exhale,correct,0.4766996
P115,right,invalid,37,exhale,correct,0.4211701
P115,right,invalid,38,exhale,correct,0.4423412
P115,right,valid,39,exhale,correct,0.4507352
P115,right,invalid,40,exhale,correct,0.3825591
P115,catch,catch,41,exhale,correct,NA
P115,left,valid,42,exhale,correct,0.4434784
P115,catch,catch,43,exhale,correct,NA
P115,right,invalid,44,exhale,correct,0.3745396
P115,right,invalid,45,exhale,correct,0.9872096
P115,right,valid,46,exhale,correct,0.4326158
P115,left,valid,47,exhale,correct,0.482789
P115,left,invalid,48,exhale,correct,0.3687719
P115,catch,catch,49,exhale,correct,NA
P115,left,valid,50,exhale,correct,0.3368297
P115,left,valid,51,exhale,correct,0.4382852
P115,left,invalid,52,exhale,correct,0.417301
P115,left,valid,53,exhale,correct,0.3652732
P115,catch,catch,54,exhale,correct,NA
P115,right,invalid,55,exhale,correct,0.4474131
P115,left,valid,56,exhale,correct,0.4943677
P115,right,valid,57,exhale,correct,0.3165583
P115,left,invalid,58,exhale,correct,0.4052381
P115,right,invalid,59,exhale,correct,0.4326889
P116,catch,catch,0,exhale,correct,NA
P116,catch,catch,1,exhale,correct,NA
P116,right,invalid,2,exhale,correct,0.393974
P116,right,invalid,3,exhale,correct,0.411026
P116,left,valid,4,exhale,correct,0.2946379
P116,left,invalid,5,exhale,correct,0.3429998
P116,right,valid,6,exhale,correct,0.4164174
P116,left,invalid,7,exhale,correct,0.4786498
P116,left,valid,8,exhale,correct,0.2966707
P116,left,invalid,9,exhale,correct,0.5104128
P116,right,invalid,10,exhale,correct,0.4913666
P116,left,invalid,11,exhale,correct,0.6035904
P116,right,valid,12,exhale,correct,0.4591645
P116,catch,catch,13,exhale,incorrect,1.0124247
P116,left,invalid,14,exhale,correct,0.4283024
P116,left,valid,15,exhale,correct,0.3397848
P116,catch,catch,16,exhale,correct,NA
P116,catch,catch,17,exhale,correct,NA
P116,right,invalid,18,exhale,correct,0.4426414
P116,catch,catch,19,exhale,correct,NA
P116,right,invalid,20,exhale,correct,0.4689336
P116,left,valid,21,exhale,correct,0.4942515
P116,right,valid,22,exhale,correct,0.4029043
P116,left,invalid,23,exhale,correct,0.7331136
P116,right,valid,24,exhale,correct,0.4123259
P116,left,invalid,25,exhale,correct,0.4410425
P116,left,valid,26,exhale,correct,0.4356224
P116,right,valid,27,exhale,correct,0.4289839
P116,catch,catch,28,exhale,correct,NA
P116,right,valid,29,exhale,correct,0.4429303
P116,right,valid,30,exhale,correct,0.3963231
P116,left,valid,31,exhale,correct,0.3589617
P116,right,valid,32,exhale,correct,0.3783305
P116,left,invalid,33,exhale,correct,0.4208904
P116,catch,catch,34,exhale,correct,NA
P116,right,valid,35,exhale,correct,0.4089779
P116,left,invalid,36,exhale,correct,0.755389
P116,right,invalid,37,exhale,correct,0.7229854
P116,right,invalid,38,exhale,correct,0.5395474
P116,right,valid,39,exhale,correct,0.5381736
P116,right,invalid,40,exhale,correct,0.4061369
P116,catch,catch,41,exhale,correct,NA
P116,left,valid,42,exhale,correct,0.5672331
P116,catch,catch,43,exhale,correct,NA
P116,right,invalid,44,exhale,correct,0.4853376
P116,right,invalid,45,exhale,correct,0.8176166
P116,right,valid,46,exhale,correct,1.0149631
P116,left,valid,47,exhale,correct,0.8963531
P116,left,invalid,48,exhale,correct,0.4325496
P116,catch,catch,49,exhale,correct,NA
P116,left,valid,50,exhale,correct,0.3853469
P116,left,valid,51,exhale,correct,0.6013413
P116,left,invalid,52,exhale,correct,0.3665051
P116,left,valid,53,exhale,correct,0.3462007
P116,catch,catch,54,exhale,correct,NA
P116,right,invalid,55,exhale,correct,0.3354167
P116,left,valid,56,exhale,correct,0.6624607
P116,right,valid,57,exhale,correct,0.5985758
P116,left,invalid,58,exhale,correct,0.3747973
P116,right,invalid,59,exhale,correct,0.3737652
P116,catch,catch,0,inhale,correct,NA
P116,catch,catch,1,inhale,correct,NA
P116,right,invalid,2,inhale,correct,0.4510979
P116,right,invalid,3,inhale,correct,0.5861798
P116,left,valid,4,inhale,correct,0.4139263
P116,left,invalid,5,inhale,correct,0.5437012
P116,right,valid,6,inhale,correct,0.6078361
P116,left,invalid,7,inhale,correct,0.8083944
P116,left,valid,8,inhale,correct,0.4096734
P116,left,invalid,9,inhale,correct,0.3909903
P116,right,invalid,10,inhale,correct,0.3196765
P116,left,invalid,11,inhale,correct,0.3968975
P116,right,valid,12,inhale,correct,0.3391066
P116,catch,catch,13,inhale,correct,NA
P116,left,invalid,14,inhale,correct,0.5501828
P116,left,valid,15,inhale,correct,0.7693402
P116,catch,catch,16,inhale,correct,NA
P116,catch,catch,17,inhale,correct,NA
P116,right,invalid,18,inhale,correct,0.4212151
P116,catch,catch,19,inhale,correct,NA
P116,right,invalid,20,inhale,correct,0.42704
P116,left,valid,21,inhale,correct,0.4557552
P116,right,valid,22,inhale,correct,0.389909
P116,left,invalid,23,inhale,correct,0.4817773
P116,right,valid,24,inhale,correct,0.4011079
P116,left,invalid,25,inhale,correct,0.3736956
P116,left,valid,26,inhale,correct,0.3669228
P116,right,valid,27,inhale,correct,0.2954868
P116,catch,catch,28,inhale,correct,NA
P116,right,valid,29,inhale,correct,0.4605517
P116,right,valid,30,inhale,correct,0.3695132
P116,left,valid,31,inhale,correct,0.3715665
P116,right,valid,32,inhale,correct,0.3991808
P116,left,invalid,33,inhale,correct,0.4073831
P116,catch,catch,34,inhale,correct,NA
P116,right,valid,35,inhale,correct,0.4279797
P116,left,invalid,36,inhale,correct,0.4629892
P116,right,invalid,37,inhale,correct,1.5130975
P116,right,invalid,38,inhale,correct,0.5355122
P116,right,valid,39,inhale,correct,0.4057317
P116,right,invalid,40,inhale,correct,0.5986645
P116,catch,catch,41,inhale,correct,NA
P116,left,valid,42,inhale,correct,0.5062619
P116,catch,catch,43,inhale,correct,NA
P116,right,invalid,44,inhale,correct,0.4208691
P116,right,invalid,45,inhale,correct,0.5877303
P116,right,valid,46,inhale,correct,0.5861792
P116,left,valid,47,inhale,correct,0.5082169
P116,left,invalid,48,inhale,correct,0.4087321
P116,catch,catch,49,inhale,correct,NA
P116,left,valid,50,inhale,correct,0.4632132
P116,left,valid,51,inhale,correct,0.4107931
P116,left,invalid,52,inhale,correct,0.3947773
P116,left,valid,53,inhale,correct,0.4699751
P116,catch,catch,54,inhale,correct,NA
P116,right,invalid,55,inhale,correct,0.632914
P116,left,valid,56,inhale,correct,0.5522655
P116,right,valid,57,inhale,correct,0.4472513
P116,left,invalid,58,inhale,correct,0.4594147
P116,right,invalid,59,inhale,correct,0.3625647
P117,catch,catch,0,inhale,correct,NA
P117,catch,catch,1,inhale,correct,NA
P117,right,invalid,2,inhale,correct,0.4685583
P117,right,invalid,3,inhale,correct,0.5302741
P117,left,valid,4,inhale,correct,0.3712286
P117,left,invalid,5,inhale,correct,0.3831814
P117,right,valid,6,inhale,correct,0.3605935
P117,left,invalid,7,inhale,correct,0.5587943
P117,left,valid,8,inhale,correct,0.4011988
P117,left,invalid,9,inhale,correct,0.3989319
P117,right,invalid,10,inhale,correct,0.3997926
P117,left,invalid,11,inhale,correct,0.3879919
P117,right,valid,12,inhale,correct,0.3595913
P117,catch,catch,13,inhale,incorrect,0.3132045
P117,left,invalid,14,inhale,correct,0.3947036
P117,left,valid,15,inhale,correct,0.3899356
P117,catch,catch,16,inhale,correct,NA
P117,catch,catch,17,inhale,correct,NA
P117,right,invalid,18,inhale,correct,0.5366749
P117,catch,catch,19,inhale,correct,NA
P117,right,invalid,20,inhale,correct,0.4824993
P117,left,valid,21,inhale,correct,0.5075055
P117,right,valid,22,inhale,correct,0.4693613
P117,left,invalid,23,inhale,correct,0.4279211
P117,right,valid,24,inhale,correct,0.3581655
P117,left,invalid,25,inhale,correct,0.4778632
P117,left,valid,26,inhale,correct,0.409482
P117,right,valid,27,inhale,correct,0.4017915
P117,catch,catch,28,inhale,correct,NA
P117,right,valid,29,inhale,correct,0.3941814
P117,right,valid,30,inhale,correct,0.4614791
P117,left,valid,31,inhale,correct,0.4221616
P117,right,valid,32,inhale,correct,0.3958633
P117,left,invalid,33,inhale,correct,0.4357185
P117,catch,catch,34,inhale,correct,NA
P117,right,valid,35,inhale,correct,0.4238606
P117,left,invalid,36,inhale,correct,0.4534253
P117,right,invalid,37,inhale,correct,0.3779258
P117,right,invalid,38,inhale,correct,0.4828299
P117,right,valid,39,inhale,correct,0.4674042
P117,right,invalid,40,inhale,correct,0.6520655
P117,catch,catch,41,inhale,correct,NA
P117,left,valid,42,inhale,correct,0.533664
P117,catch,catch,43,inhale,correct,NA
P117,right,invalid,44,inhale,correct,0.4498358
P117,right,invalid,45,inhale,correct,0.4097134
P117,right,valid,46,inhale,correct,0.3463968
P117,left,valid,47,inhale,correct,0.3444986
P117,left,invalid,48,inhale,correct,0.3907558
P117,catch,catch,49,inhale,correct,NA
P117,left,valid,50,inhale,correct,0.4466202
P117,left,valid,51,inhale,correct,0.4475796
P117,left,invalid,52,inhale,correct,0.4203633
P117,left,valid,53,inhale,correct,0.3746621
P117,catch,catch,54,inhale,correct,NA
P117,right,invalid,55,inhale,correct,0.39931
P117,left,valid,56,inhale,correct,0.4406681
P117,right,valid,57,inhale,correct,0.3404033
P117,left,invalid,58,inhale,correct,0.3619776
P117,right,invalid,59,inhale,correct,0.4654404
P117,catch,catch,0,exhale,correct,NA
P117,catch,catch,1,exhale,correct,NA
P117,right,invalid,2,exhale,correct,0.4261622
P117,right,invalid,3,exhale,correct,0.4228195
P117,left,valid,4,exhale,correct,0.405555
P117,left,invalid,5,exhale,correct,0.4423661
P117,right,valid,6,exhale,correct,0.4708765
P117,left,invalid,7,exhale,correct,0.437607
P117,left,valid,8,exhale,correct,0.3996117
P117,left,invalid,9,exhale,correct,0.3547376
P117,right,invalid,10,exhale,correct,0.4176433
P117,left,invalid,11,exhale,correct,0.4092197
P117,right,valid,12,exhale,correct,0.4347455
P117,catch,catch,13,exhale,correct,NA
P117,left,invalid,14,exhale,correct,0.461184
P117,left,valid,15,exhale,correct,0.6346645
P117,catch,catch,16,exhale,correct,NA
P117,catch,catch,17,exhale,correct,NA
P117,right,invalid,18,exhale,correct,0.4743378
P117,catch,catch,19,exhale,correct,NA
P117,right,invalid,20,exhale,correct,0.3859246
P117,left,valid,21,exhale,correct,0.4196519
P117,right,valid,22,exhale,correct,0.3442279
P117,left,invalid,23,exhale,correct,0.4593271
P117,right,valid,24,exhale,correct,0.4404486
P117,left,invalid,25,exhale,correct,0.3956952
P117,left,valid,26,exhale,correct,0.7695837
P117,right,valid,27,exhale,correct,0.3951213
P117,catch,catch,28,exhale,correct,NA
P117,right,valid,29,exhale,correct,0.4989792
P117,right,valid,30,exhale,correct,0.5181905
P117,left,valid,31,exhale,correct,0.4324445
P117,right,valid,32,exhale,correct,0.3743009
P117,left,invalid,33,exhale,correct,0.4769267
P117,catch,catch,34,exhale,correct,NA
P117,right,valid,35,exhale,correct,0.4747969
P117,left,invalid,36,exhale,correct,0.445158
P117,right,invalid,37,exhale,correct,0.4028797
P117,right,invalid,38,exhale,correct,0.3868116
P117,right,valid,39,exhale,correct,0.4414822
P117,right,invalid,40,exhale,correct,0.3568921
P117,catch,catch,41,exhale,correct,NA
P117,left,valid,42,exhale,correct,0.4912068
P117,catch,catch,43,exhale,correct,NA
P117,right,invalid,44,exhale,correct,0.4841277
P117,right,invalid,45,exhale,correct,0.4081903
P117,right,valid,46,exhale,correct,0.3619753
P117,left,valid,47,exhale,correct,0.3915781
P117,left,invalid,48,exhale,correct,0.3063212
P117,catch,catch,49,exhale,correct,NA
P117,left,valid,50,exhale,correct,0.4524428
P117,left,valid,51,exhale,correct,0.3637936
P117,left,invalid,52,exhale,correct,0.4625346
P117,left,valid,53,exhale,correct,0.3312649
P117,catch,catch,54,exhale,correct,NA
P117,right,invalid,55,exhale,correct,0.9189894
P117,left,valid,56,exhale,correct,0.3553201
P117,right,valid,57,exhale,correct,0.3701694
P117,left,invalid,58,exhale,correct,0.3954038
P117,right,invalid,59,exhale,correct,0.3956716
P118,catch,catch,0,exhale,correct,NA
P118,catch,catch,1,exhale,correct,NA
P118,right,invalid,2,exhale,correct,0.4377172
P118,right,invalid,3,exhale,correct,0.403464
P118,left,valid,4,exhale,correct,0.393738
P118,left,invalid,5,exhale,correct,0.4801921
P118,right,valid,6,exhale,correct,0.2824974
P118,left,invalid,7,exhale,correct,0.376708
P118,left,valid,8,exhale,correct,0.335619
P118,left,invalid,9,exhale,correct,0.4059517
P118,right,invalid,10,exhale,correct,0.3188735
P118,left,invalid,11,exhale,correct,0.3842464
P118,right,valid,12,exhale,correct,0.3607729
P118,catch,catch,13,exhale,correct,NA
P118,left,invalid,14,exhale,correct,0.3202423
P118,left,valid,15,exhale,correct,0.3191761
P118,catch,catch,16,exhale,correct,NA
P118,catch,catch,17,exhale,correct,NA
P118,right,invalid,18,exhale,correct,0.3912566
P118,catch,catch,19,exhale,correct,NA
P118,right,invalid,20,exhale,correct,0.3942196
P118,left,valid,21,exhale,correct,0.4613336
P118,right,valid,22,exhale,correct,0.3172346
P118,left,invalid,23,exhale,correct,0.3521107
P118,right,valid,24,exhale,correct,0.7068771
P118,left,invalid,25,exhale,correct,0.3623432
P118,left,valid,26,exhale,correct,0.8102359
P118,right,valid,27,exhale,correct,0.3204017
P118,catch,catch,28,exhale,correct,NA
P118,right,valid,29,exhale,correct,0.3174768
P118,right,valid,30,exhale,correct,0.3442827
P118,left,valid,31,exhale,correct,0.3717135
P118,right,valid,32,exhale,correct,0.3089481
P118,left,invalid,33,exhale,correct,0.384161
P118,catch,catch,34,exhale,correct,NA
P118,right,valid,35,exhale,correct,0.3470892
P118,left,invalid,36,exhale,correct,0.2494479
P118,right,invalid,37,exhale,correct,0.4582343
P118,right,invalid,38,exhale,correct,0.3417088
P118,right,valid,39,exhale,correct,0.3361544
P118,right,invalid,40,exhale,correct,0.4163722
P118,catch,catch,41,exhale,correct,NA
P118,left,valid,42,exhale,correct,0.4079026
P118,catch,catch,43,exhale,correct,NA
P118,right,invalid,44,exhale,correct,0.4204197
P118,right,invalid,45,exhale,correct,0.3102602
P118,right,valid,46,exhale,correct,0.3125277
P118,left,valid,47,exhale,correct,0.4292725
P118,left,invalid,48,exhale,correct,0.2856425
P118,catch,catch,49,exhale,correct,NA
P118,left,valid,50,exhale,correct,0.3854047
P118,left,valid,51,exhale,correct,0.4201421
P118,left,invalid,52,exhale,correct,0.3448516
P118,left,valid,53,exhale,correct,0.3545706
P118,catch,catch,54,exhale,correct,NA
P118,right,invalid,55,exhale,correct,0.3536638
P118,left,valid,56,exhale,correct,0.2923375
P118,right,valid,57,exhale,correct,0.3033481
P118,left,invalid,58,exhale,correct,0.3639636
P118,right,invalid,59,exhale,correct,0.3953915
P118,catch,catch,0,inhale,correct,NA
P118,catch,catch,1,inhale,correct,NA
P118,right,invalid,2,inhale,correct,0.3505141
P118,right,invalid,3,inhale,correct,0.3630787
P118,left,valid,4,inhale,correct,0.3671317
P118,left,invalid,5,inhale,correct,0.3903752
P118,right,valid,6,inhale,correct,0.3324199
P118,left,invalid,7,inhale,correct,0.3209003
P118,left,valid,8,inhale,correct,0.3021922
P118,left,invalid,9,inhale,correct,0.2310097
P118,right,invalid,10,inhale,correct,0.3581874
P118,left,invalid,11,inhale,correct,0.3240264
P118,right,valid,12,inhale,correct,0.3596687
P118,catch,catch,13,inhale,incorrect,0.3320134
P118,left,invalid,14,inhale,correct,0.4299473
P118,left,valid,15,inhale,correct,0.584531
P118,catch,catch,16,inhale,correct,NA
P118,catch,catch,17,inhale,correct,NA
P118,right,invalid,18,inhale,correct,0.4285541
P118,catch,catch,19,inhale,correct,NA
P118,right,invalid,20,inhale,correct,0.3247578
P118,left,valid,21,inhale,correct,0.3977676
P118,right,valid,22,inhale,correct,0.3380073
P118,left,invalid,23,inhale,correct,0.4465775
P118,right,valid,24,inhale,correct,0.3666815
P118,left,invalid,25,inhale,correct,0.3774754
P118,left,valid,26,inhale,correct,0.2971496
P118,right,valid,27,inhale,correct,0.472657
P118,catch,catch,28,inhale,incorrect,0.2774285
P118,right,valid,29,inhale,correct,0.2899042
P118,right,valid,30,inhale,correct,0.3087306
P118,left,valid,31,inhale,correct,0.3561708
P118,right,valid,32,inhale,correct,0.3627689
P118,left,invalid,33,inhale,correct,0.5136842
P118,catch,catch,34,inhale,correct,NA
P118,right,valid,35,inhale,correct,0.3856532
P118,left,invalid,36,inhale,correct,0.3607058
P118,right,invalid,37,inhale,correct,0.876267
P118,right,invalid,38,inhale,correct,0.3856938
P118,right,valid,39,inhale,correct,0.5264115
P118,right,invalid,40,inhale,correct,0.4117823
P118,catch,catch,41,inhale,correct,NA
P118,left,valid,42,inhale,correct,0.4402057
P118,catch,catch,43,inhale,correct,NA
P118,right,invalid,44,inhale,correct,0.4125172
P118,right,invalid,45,inhale,correct,0.3735404
P118,right,valid,46,inhale,correct,0.3129756
P118,left,valid,47,inhale,correct,0.4037382
P118,left,invalid,48,inhale,correct,0.3722591
P118,catch,catch,49,inhale,correct,NA
P118,left,valid,50,inhale,correct,0.3436825
P118,left,valid,51,inhale,correct,0.2629725
P118,left,invalid,52,inhale,correct,0.3364721
P118,left,valid,53,inhale,correct,0.6176749
P118,catch,catch,54,inhale,correct,NA
P118,right,invalid,55,inhale,correct,0.3345087
P118,left,valid,56,inhale,correct,0.3474296
P118,right,valid,57,inhale,correct,0.3181
P118,left,invalid,58,inhale,correct,0.3710023
P118,right,invalid,59,inhale,correct,0.2634144
P119,catch,catch,0,inhale,correct,NA
P119,catch,catch,1,inhale,correct,NA
P119,right,invalid,2,inhale,correct,0.6343701
P119,right,invalid,3,inhale,correct,0.5027473
P119,left,valid,4,inhale,correct,0.5422945
P119,left,invalid,5,inhale,correct,0.4662895
P119,right,valid,6,inhale,correct,0.5220951
P119,left,invalid,7,inhale,correct,0.6325378
P119,left,valid,8,inhale,correct,0.446447
P119,left,invalid,9,inhale,correct,0.529979
P119,right,invalid,10,inhale,correct,0.4568802
P119,left,invalid,11,inhale,correct,0.4064898
P119,right,valid,12,inhale,correct,0.4121425
P119,catch,catch,13,inhale,correct,NA
P119,left,invalid,14,inhale,correct,0.4880537
P119,left,valid,15,inhale,correct,0.4700416
P119,catch,catch,16,inhale,correct,NA
P119,catch,catch,17,inhale,correct,NA
P119,right,invalid,18,inhale,correct,0.4102524
P119,catch,catch,19,inhale,correct,NA
P119,right,invalid,20,inhale,correct,0.6229623
P119,left,valid,21,inhale,correct,0.6385925
P119,right,valid,22,inhale,correct,0.451633
P119,left,invalid,23,inhale,correct,0.4404455
P119,right,valid,24,inhale,correct,0.3963555
P119,left,invalid,25,inhale,correct,0.4690699
P119,left,valid,26,inhale,correct,0.3984588
P119,right,valid,27,inhale,correct,0.4627148
P119,catch,catch,28,inhale,correct,NA
P119,right,valid,29,inhale,correct,0.4389719
P119,right,valid,30,inhale,correct,0.4843275
P119,left,valid,31,inhale,correct,0.4639047
P119,right,valid,32,inhale,correct,0.3822466
P119,left,invalid,33,inhale,correct,0.5469136
P119,catch,catch,34,inhale,correct,NA
P119,right,valid,35,inhale,correct,0.4459315
P119,left,invalid,36,inhale,correct,0.610848
P119,right,invalid,37,inhale,correct,0.3680718
P119,right,invalid,38,inhale,correct,0.4520537
P119,right,valid,39,inhale,correct,0.4490235
P119,right,invalid,40,inhale,correct,0.4071893
P119,catch,catch,41,inhale,correct,NA
P119,left,valid,42,inhale,correct,0.4414293
P119,catch,catch,43,inhale,correct,NA
P119,right,invalid,44,inhale,correct,0.4397882
P119,right,invalid,45,inhale,correct,0.4403749
P119,right,valid,46,inhale,correct,0.4584507
P119,left,valid,47,inhale,correct,0.4685962
P119,left,invalid,48,inhale,correct,0.3991045
P119,catch,catch,49,inhale,correct,NA
P119,left,valid,50,inhale,correct,0.4342845
P119,left,valid,51,inhale,correct,0.4644553
P119,left,invalid,52,inhale,correct,0.5339496
P119,left,valid,53,inhale,correct,0.559567
P119,catch,catch,54,inhale,correct,NA
P119,right,invalid,55,inhale,correct,0.6481027
P119,left,valid,56,inhale,correct,0.5522231
P119,right,valid,57,inhale,correct,0.481313
P119,left,invalid,58,inhale,correct,0.4854342
P119,right,invalid,59,inhale,correct,0.4280786
P119,catch,catch,0,exhale,correct,NA
P119,catch,catch,1,exhale,correct,NA
P119,right,invalid,2,exhale,correct,0.6052881
P119,right,invalid,3,exhale,correct,0.4246201
P119,left,valid,4,exhale,correct,0.3963734
P119,left,invalid,5,exhale,correct,0.4325481
P119,right,valid,6,exhale,correct,0.3517018
P119,left,invalid,7,exhale,correct,0.40754
P119,left,valid,8,exhale,correct,0.5203207
P119,left,invalid,9,exhale,correct,0.4215016
P119,right,invalid,10,exhale,correct,0.4684943
P119,left,invalid,11,exhale,correct,0.6134555
P119,right,valid,12,exhale,correct,0.4608844
P119,catch,catch,13,exhale,correct,NA
P119,left,invalid,14,exhale,correct,0.4245057
P119,left,valid,15,exhale,correct,0.3735775
P119,catch,catch,16,exhale,correct,NA
P119,catch,catch,17,exhale,correct,NA
P119,right,invalid,18,exhale,correct,0.4827634
P119,catch,catch,19,exhale,correct,NA
P119,right,invalid,20,exhale,correct,0.4366987
P119,left,valid,21,exhale,correct,0.5250406
P119,right,valid,22,exhale,correct,0.4526342
P119,left,invalid,23,exhale,correct,0.4973264
P119,right,valid,24,exhale,correct,0.4152741
P119,left,invalid,25,exhale,correct,0.4185665
P119,left,valid,26,exhale,correct,0.374608
P119,right,valid,27,exhale,correct,0.4291881
P119,catch,catch,28,exhale,correct,NA
P119,right,valid,29,exhale,correct,0.452358
P119,right,valid,30,exhale,correct,0.3080677
P119,left,valid,31,exhale,correct,0.3873094
P119,right,valid,32,exhale,correct,0.4130457
P119,left,invalid,33,exhale,correct,0.4066712
P119,catch,catch,34,exhale,correct,NA
P119,right,valid,35,exhale,correct,0.388174
P119,left,invalid,36,exhale,correct,0.4730964
P119,right,invalid,37,exhale,correct,0.4747495
P119,right,invalid,38,exhale,correct,0.5602905
P119,right,valid,39,exhale,correct,0.4554122
P119,right,invalid,40,exhale,correct,0.4140104
P119,catch,catch,41,exhale,correct,NA
P119,left,valid,42,exhale,correct,0.4359174
P119,catch,catch,43,exhale,correct,NA
P119,right,invalid,44,exhale,correct,0.4782751
P119,right,invalid,45,exhale,correct,0.9045387
P119,right,valid,46,exhale,correct,0.4446088
P119,left,valid,47,exhale,correct,0.4528565
P119,left,invalid,48,exhale,correct,0.6672204
P119,catch,catch,49,exhale,correct,NA
P119,left,valid,50,exhale,correct,0.4615879
P119,left,valid,51,exhale,correct,0.3559338
P119,left,invalid,52,exhale,correct,0.4279537
P119,left,valid,53,exhale,correct,0.4675386
P119,catch,catch,54,exhale,correct,NA
P119,right,invalid,55,exhale,correct,0.5178257
