"participant_ID","target_x","validity","trial","phase","response","rt"
"P103",10,"catch",0,"inhale","correct",NA
"P103",10,"catch",1,"inhale","correct",NA
"P103",0.31,"invalid",2,"inhale","correct",0.550107599992771
"P103",0.31,"invalid",3,"inhale","correct",0.494688199993107
"P103",-0.31,"valid",4,"inhale","correct",0.42921450000722
"P103",-0.31,"invalid",5,"inhale","correct",0.431498200006899
"P103",0.31,"valid",6,"inhale","correct",0.340707399998792
"P103",-0.31,"invalid",7,"inhale","correct",0.406217900002957
"P103",-0.31,"valid",8,"inhale","correct",0.423892000006163
"P103",-0.31,"invalid",9,"inhale","correct",0.418110900005559
"P103",0.31,"invalid",10,"inhale","correct",0.454388900005142
"P103",-0.31,"invalid",11,"inhale","correct",0.45845800000825
"P103",0.31,"valid",12,"inhale","correct",0.436381799998344
"P103",10,"catch",13,"inhale","correct",NA
"P103",-0.31,"invalid",14,"inhale","correct",0.41476149999653
"P103",-0.31,"valid",15,"inhale","correct",0.430007399991155
"P103",10,"catch",16,"inhale","incorrect",0.303278899998986
"P103",10,"catch",17,"inhale","correct",NA
"P103",0.31,"invalid",18,"inhale","correct",0.636816000012914
"P103",10,"catch",19,"inhale","correct",NA
"P103",0.31,"invalid",20,"inhale","correct",0.512050899997121
"P103",-0.31,"valid",21,"inhale","correct",0.402654999998049
"P103",0.31,"valid",22,"inhale","correct",0.460399000003235
"P103",-0.31,"invalid",23,"inhale","correct",0.466233800005284
"P103",0.31,"valid",24,"inhale","correct",0.425184299994726
"P103",-0.31,"invalid",25,"inhale","correct",0.41786129999673
"P103",-0.31,"valid",26,"inhale","correct",0.540504999997211
"P103",0.31,"valid",27,"inhale","correct",0.578636999998707
"P103",10,"catch",28,"inhale","correct",NA
"P103",0.31,"valid",29,"inhale","correct",0.60477649999666
"P103",0.31,"valid",30,"inhale","correct",0.433404199997312
"P103",-0.31,"valid",31,"inhale","correct",0.417219099996146
"P103",0.31,"valid",32,"inhale","correct",0.441471199999796
"P103",-0.31,"invalid",33,"inhale","correct",0.338394400008838
"P103",10,"catch",34,"inhale","correct",NA
"P103",0.31,"valid",35,"inhale","correct",0.539732300007017
"P103",-0.31,"invalid",36,"inhale","correct",0.446383100003004
"P103",0.31,"invalid",37,"inhale","correct",0.543441500005429
"P103",0.31,"invalid",38,"inhale","correct",0.507954000000609
"P103",0.31,"valid",39,"inhale","correct",0.531775700001162
"P103",0.31,"invalid",40,"inhale","correct",0.51950909999141
"P103",10,"catch",41,"inhale","correct",NA
"P103",-0.31,"valid",42,"inhale","correct",0.404671399999643
"P103",10,"catch",43,"inhale","correct",NA
"P103",0.31,"invalid",44,"inhale","correct",0.545212900004117
"P103",0.31,"invalid",45,"inhale","correct",0.517743299991707
"P103",0.31,"valid",46,"inhale","correct",0.405208100011805
"P103",-0.31,"valid",47,"inhale","correct",0.351576100001694
"P103",-0.31,"invalid",48,"inhale","correct",0.360193599990453
"P103",10,"catch",49,"inhale","correct",NA
"P103",-0.31,"valid",50,"inhale","correct",0.407024400003138
"P103",-0.31,"valid",51,"inhale","correct",0.487941900006263
"P103",-0.31,"invalid",52,"inhale","correct",0.506672199990135
"P103",-0.31,"valid",53,"inhale","correct",0.444484400009969
"P103",10,"catch",54,"inhale","correct",NA
"P103",0.31,"invalid",55,"inhale","correct",0.5555822999886
"P103",-0.31,"valid",56,"inhale","correct",0.439394400003948
"P103",0.31,"valid",57,"inhale","correct",0.715441599997575
"P103",-0.31,"invalid",58,"inhale","correct",0.39472699999169
"P103",0.31,"invalid",59,"inhale","correct",0.531553399996483
"P103",10,"catch",0,"exhale","correct",NA
"P103",10,"catch",1,"exhale","correct",NA
"P103",0.31,"invalid",2,"exhale","correct",0.512647099996684
"P103",0.31,"invalid",3,"exhale","correct",0.520974099999876
"P103",-0.31,"valid",4,"exhale","correct",0.434986100008246
"P103",-0.31,"invalid",5,"exhale","correct",0.519435499998508
"P103",0.31,"valid",6,"exhale","correct",0.91719639999792
"P103",-0.31,"invalid",7,"exhale","correct",0.484453299999586
"P103",-0.31,"valid",8,"exhale","correct",0.386022999999113
"P103",-0.31,"invalid",9,"exhale","correct",0.405623500002548
"P103",0.31,"invalid",10,"exhale","correct",0.338733500000671
"P103",-0.31,"invalid",11,"exhale","correct",0.391134300007252
"P103",0.31,"valid",12,"exhale","correct",0.481855899997754
"P103",10,"catch",13,"exhale","correct",NA
"P103",-0.31,"invalid",14,"exhale","correct",0.42734520000522
"P103",-0.31,"valid",15,"exhale","correct",0.343109699999331
"P103",10,"catch",16,"exhale","correct",NA
"P103",10,"catch",17,"exhale","correct",NA
"P103",0.31,"invalid",18,"exhale","correct",0.565511900000274
"P103",10,"catch",19,"exhale","correct",NA
"P103",0.31,"invalid",20,"exhale","correct",0.706752099998994
"P103",-0.31,"valid",21,"exhale","correct",0.406694100005552
"P103",0.31,"valid",22,"exhale","correct",0.444142899999861
"P103",-0.31,"invalid",23,"exhale","correct",0.481339099991601
"P103",0.31,"valid",24,"exhale","correct",0.335252200005925
"P103",-0.31,"invalid",25,"exhale","correct",0.422843899999862
"P103",-0.31,"valid",26,"exhale","correct",0.406156500001089
"P103",0.31,"valid",27,"exhale","correct",0.478324700001394
"P103",10,"catch",28,"exhale","correct",NA
"P103",0.31,"valid",29,"exhale","correct",0.484883800003445
"P103",0.31,"valid",30,"exhale","correct",0.460494600003585
"P103",-0.31,"valid",31,"exhale","correct",0.425151400006143
"P103",0.31,"valid",32,"exhale","correct",0.360884299996542
"P103",-0.31,"invalid",33,"exhale","correct",0.486438700012513
"P103",10,"catch",34,"exhale","correct",NA
"P103",0.31,"valid",35,"exhale","correct",0.462827399998787
"P103",-0.31,"invalid",36,"exhale","correct",0.638941299999715
"P103",0.31,"invalid",37,"exhale","correct",0.452894799993373
"P103",0.31,"invalid",38,"exhale","correct",0.513015300006373
"P103",0.31,"valid",39,"exhale","correct",0.931527900000219
"P103",0.31,"invalid",40,"exhale","correct",0.367743499999051
"P103",10,"catch",41,"exhale","correct",NA
"P103",-0.31,"valid",42,"exhale","correct",0.531047399999807
"P103",10,"catch",43,"exhale","correct",NA
"P103",0.31,"invalid",44,"exhale","correct",0.486891599997762
"P103",0.31,"invalid",45,"exhale","correct",0.462403999990784
"P103",0.31,"valid",46,"exhale","correct",0.35511370000313
"P103",-0.31,"valid",47,"exhale","correct",0.557702899997821
"P103",-0.31,"invalid",48,"exhale","correct",0.469064000004437
"P103",10,"catch",49,"exhale","correct",NA
"P103",-0.31,"valid",50,"exhale","correct",0.392387100000633
"P103",-0.31,"valid",51,"exhale","correct",0.467163900000742
"P103",-0.31,"invalid",52,"exhale","correct",0.382713800005149
"P103",-0.31,"valid",53,"exhale","correct",0.360674499999732
"P103",10,"catch",54,"exhale","correct",NA
"P103",0.31,"invalid",55,"exhale","correct",0.557541400004993
"P103",-0.31,"valid",56,"exhale","correct",0.469951300008688
"P103",0.31,"valid",57,"exhale","correct",0.366574699990451
"P103",-0.31,"invalid",58,"exhale","correct",0.39189620000252
"P103",0.31,"invalid",59,"exhale","correct",0.581801799999084
