"participant_ID","target_x","validity","trial","phase","response","rt"
"P116",10,"catch",0,"exhale","correct",NA
"P116",10,"catch",1,"exhale","correct",NA
"P116",0.31,"invalid",2,"exhale","correct",0.393974000005983
"P116",0.31,"invalid",3,"exhale","correct",0.411026000016136
"P116",-0.31,"valid",4,"exhale","correct",0.294637899991358
"P116",-0.31,"invalid",5,"exhale","correct",0.342999799991958
"P116",0.31,"valid",6,"exhale","correct",0.416417400003411
"P116",-0.31,"invalid",7,"exhale","correct",0.478649800003041
"P116",-0.31,"valid",8,"exhale","correct",0.296670700015966
"P116",-0.31,"invalid",9,"exhale","correct",0.510412799980259
"P116",0.31,"invalid",10,"exhale","correct",0.491366599977482
"P116",-0.31,"invalid",11,"exhale","correct",0.603590399987297
"P116",0.31,"valid",12,"exhale","correct",0.459164500003681
"P116",10,"catch",13,"exhale","incorrect",1.01242469999124
"P116",-0.31,"invalid",14,"exhale","correct",0.428302399988752
"P116",-0.31,"valid",15,"exhale","correct",0.339784799987683
"P116",10,"catch",16,"exhale","correct",NA
"P116",10,"catch",17,"exhale","correct",NA
"P116",0.31,"invalid",18,"exhale","correct",0.442641400004504
"P116",10,"catch",19,"exhale","correct",NA
"P116",0.31,"invalid",20,"exhale","correct",0.468933600001037
"P116",-0.31,"valid",21,"exhale","correct",0.494251500000246
"P116",0.31,"valid",22,"exhale","correct",0.402904300019145
"P116",-0.31,"invalid",23,"exhale","correct",0.733113599999342
"P116",0.31,"valid",24,"exhale","correct",0.41232589998981
"P116",-0.31,"invalid",25,"exhale","correct",0.441042499995092
"P116",-0.31,"valid",26,"exhale","correct",0.435622399993008
"P116",0.31,"valid",27,"exhale","correct",0.428983899997547
"P116",10,"catch",28,"exhale","correct",NA
"P116",0.31,"valid",29,"exhale","correct",0.442930300021544
"P116",0.31,"valid",30,"exhale","correct",0.396323100023437
"P116",-0.31,"valid",31,"exhale","correct",0.358961699996144
"P116",0.31,"valid",32,"exhale","correct",0.378330500010634
"P116",-0.31,"invalid",33,"exhale","correct",0.420890399982454
"P116",10,"catch",34,"exhale","correct",NA
"P116",0.31,"valid",35,"exhale","correct",0.408977899991442
"P116",-0.31,"invalid",36,"exhale","correct",0.755388999998104
"P116",0.31,"invalid",37,"exhale","correct",0.722985399974277
"P116",0.31,"invalid",38,"exhale","correct",0.539547400025185
"P116",0.31,"valid",39,"exhale","correct",0.538173600012669
"P116",0.31,"invalid",40,"exhale","correct",0.406136899982812
"P116",10,"catch",41,"exhale","correct",NA
"P116",-0.31,"valid",42,"exhale","correct",0.567233100009616
"P116",10,"catch",43,"exhale","correct",NA
"P116",0.31,"invalid",44,"exhale","correct",0.485337599995546
"P116",0.31,"invalid",45,"exhale","correct",0.817616600019392
"P116",0.31,"valid",46,"exhale","correct",1.01496309999493
"P116",-0.31,"valid",47,"exhale","correct",0.896353099989938
"P116",-0.31,"invalid",48,"exhale","correct",0.432549600023776
"P116",10,"catch",49,"exhale","correct",NA
"P116",-0.31,"valid",50,"exhale","correct",0.385346900002332
"P116",-0.31,"valid",51,"exhale","correct",0.601341300003696
"P116",-0.31,"invalid",52,"exhale","correct",0.366505099984352
"P116",-0.31,"valid",53,"exhale","correct",0.346200700005284
"P116",10,"catch",54,"exhale","correct",NA
"P116",0.31,"invalid",55,"exhale","correct",0.335416699992493
"P116",-0.31,"valid",56,"exhale","correct",0.662460699997609
"P116",0.31,"valid",57,"exhale","correct",0.598575800016988
"P116",-0.31,"invalid",58,"exhale","correct",0.374797299999045
"P116",0.31,"invalid",59,"exhale","correct",0.373765199998161
"P116",10,"catch",0,"inhale","correct",NA
"P116",10,"catch",1,"inhale","correct",NA
"P116",0.31,"invalid",2,"inhale","correct",0.451097900018794
"P116",0.31,"invalid",3,"inhale","correct",0.586179799982347
"P116",-0.31,"valid",4,"inhale","correct",0.41392629998154
"P116",-0.31,"invalid",5,"inhale","correct",0.5437011999893
"P116",0.31,"valid",6,"inhale","correct",0.607836099981796
"P116",-0.31,"invalid",7,"inhale","correct",0.80839439999545
"P116",-0.31,"valid",8,"inhale","correct",0.409673399990425
"P116",-0.31,"invalid",9,"inhale","correct",0.390990300016711
"P116",0.31,"invalid",10,"inhale","correct",0.319676499988418
"P116",-0.31,"invalid",11,"inhale","correct",0.396897500002524
"P116",0.31,"valid",12,"inhale","correct",0.339106600004015
"P116",10,"catch",13,"inhale","correct",NA
"P116",-0.31,"invalid",14,"inhale","correct",0.550182800012408
"P116",-0.31,"valid",15,"inhale","correct",0.769340200000443
"P116",10,"catch",16,"inhale","correct",NA
"P116",10,"catch",17,"inhale","correct",NA
"P116",0.31,"invalid",18,"inhale","correct",0.421215099981055
"P116",10,"catch",19,"inhale","correct",NA
"P116",0.31,"invalid",20,"inhale","correct",0.427039999980479
"P116",-0.31,"valid",21,"inhale","correct",0.455755200004205
"P116",0.31,"valid",22,"inhale","correct",0.389908999990439
"P116",-0.31,"invalid",23,"inhale","correct",0.481777299981331
"P116",0.31,"valid",24,"inhale","correct",0.401107900019269
"P116",-0.31,"invalid",25,"inhale","correct",0.373695599992061
"P116",-0.31,"valid",26,"inhale","correct",0.366922799992608
"P116",0.31,"valid",27,"inhale","correct",0.295486800023355
"P116",10,"catch",28,"inhale","correct",NA
"P116",0.31,"valid",29,"inhale","correct",0.460551700001815
"P116",0.31,"valid",30,"inhale","correct",0.369513199984794
"P116",-0.31,"valid",31,"inhale","correct",0.371566500019981
"P116",0.31,"valid",32,"inhale","correct",0.399180799984606
"P116",-0.31,"invalid",33,"inhale","correct",0.407383100013249
"P116",10,"catch",34,"inhale","correct",NA
"P116",0.31,"valid",35,"inhale","correct",0.427979699976277
"P116",-0.31,"invalid",36,"inhale","correct",0.462989200023003
"P116",0.31,"invalid",37,"inhale","correct",1.513097499992
"P116",0.31,"invalid",38,"inhale","correct",0.535512200003723
"P116",0.31,"valid",39,"inhale","correct",0.405731699982425
"P116",0.31,"invalid",40,"inhale","correct",0.598664499993902
"P116",10,"catch",41,"inhale","correct",NA
"P116",-0.31,"valid",42,"inhale","correct",0.506261899980018
"P116",10,"catch",43,"inhale","correct",NA
"P116",0.31,"invalid",44,"inhale","correct",0.420869099994889
"P116",0.31,"invalid",45,"inhale","correct",0.587730300001567
"P116",0.31,"valid",46,"inhale","correct",0.586179200006882
"P116",-0.31,"valid",47,"inhale","correct",0.508216899994295
"P116",-0.31,"invalid",48,"inhale","correct",0.408732100011548
"P116",10,"catch",49,"inhale","correct",NA
"P116",-0.31,"valid",50,"inhale","correct",0.46321319998242
"P116",-0.31,"valid",51,"inhale","correct",0.410793100018054
"P116",-0.31,"invalid",52,"inhale","correct",0.394777300010901
"P116",-0.31,"valid",53,"inhale","correct",0.46997510001529
"P116",10,"catch",54,"inhale","correct",NA
"P116",0.31,"invalid",55,"inhale","correct",0.632913999987068
"P116",-0.31,"valid",56,"inhale","correct",0.552265500009526
"P116",0.31,"valid",57,"inhale","correct",0.447251299978234
"P116",-0.31,"invalid",58,"inhale","correct",0.459414700017078
"P116",0.31,"invalid",59,"inhale","correct",0.362564700015355
