"participant_ID","target_x","validity","trial","phase","response","rt"
"P122",10,"catch",0,"exhale","correct",NA
"P122",10,"catch",1,"exhale","correct",NA
"P122",0.31,"invalid",2,"exhale","correct",0.52385499997763
"P122",0.31,"invalid",3,"exhale","correct",0.377566499984823
"P122",-0.31,"valid",4,"exhale","correct",0.481086700048763
"P122",-0.31,"invalid",5,"exhale","correct",0.421685799956322
"P122",0.31,"valid",6,"exhale","correct",0.381451199995354
"P122",-0.31,"invalid",7,"exhale","correct",0.397188999981154
"P122",-0.31,"valid",8,"exhale","correct",0.329534499964211
"P122",-0.31,"invalid",9,"exhale","correct",0.326413700007834
"P122",0.31,"invalid",10,"exhale","correct",0.352035099989735
"P122",-0.31,"invalid",11,"exhale","correct",0.440530799969565
"P122",0.31,"valid",12,"exhale","correct",0.346430699981283
"P122",10,"catch",13,"exhale","correct",NA
"P122",-0.31,"invalid",14,"exhale","correct",0.453195400012191
"P122",-0.31,"valid",15,"exhale","correct",0.401446599978954
"P122",10,"catch",16,"exhale","correct",NA
"P122",10,"catch",17,"exhale","correct",NA
"P122",0.31,"invalid",18,"exhale","correct",0.455980399972759
"P122",10,"catch",19,"exhale","correct",NA
"P122",0.31,"invalid",20,"exhale","correct",0.498167800018564
"P122",-0.31,"valid",21,"exhale","correct",0.449361600039992
"P122",0.31,"valid",22,"exhale","correct",0.464844300004188
"P122",-0.31,"invalid",23,"exhale","correct",0.401076900016051
"P122",0.31,"valid",24,"exhale","correct",0.445236900006421
"P122",-0.31,"invalid",25,"exhale","correct",0.343225900025573
"P122",-0.31,"valid",26,"exhale","correct",0.401938199996948
"P122",0.31,"valid",27,"exhale","correct",0.376250799978152
"P122",10,"catch",28,"exhale","correct",NA
"P122",0.31,"valid",29,"exhale","correct",0.353319300047588
"P122",0.31,"valid",30,"exhale","correct",0.419999399979133
"P122",-0.31,"valid",31,"exhale","correct",0.443316899996717
"P122",0.31,"valid",32,"exhale","correct",0.401610200002324
"P122",-0.31,"invalid",33,"exhale","correct",0.429399600019678
"P122",10,"catch",34,"exhale","correct",NA
"P122",0.31,"valid",35,"exhale","correct",0.396361300023273
"P122",-0.31,"invalid",36,"exhale","correct",0.475050000008196
"P122",0.31,"invalid",37,"exhale","correct",0.3868612999795
"P122",0.31,"invalid",38,"exhale","correct",0.514134299999569
"P122",0.31,"valid",39,"exhale","correct",0.347771000000648
"P122",0.31,"invalid",40,"exhale","correct",0.440041700028814
"P122",10,"catch",41,"exhale","correct",NA
"P122",-0.31,"valid",42,"exhale","correct",0.37891419994412
"P122",10,"catch",43,"exhale","correct",NA
"P122",0.31,"invalid",44,"exhale","correct",0.441243499983102
"P122",0.31,"invalid",45,"exhale","correct",0.416376000037417
"P122",0.31,"valid",46,"exhale","correct",0.404369800002314
"P122",-0.31,"valid",47,"exhale","correct",0.336215800023638
"P122",-0.31,"invalid",48,"exhale","correct",0.444127800001297
"P122",10,"catch",49,"exhale","correct",NA
"P122",-0.31,"valid",50,"exhale","correct",0.524546300002839
"P122",-0.31,"valid",51,"exhale","correct",0.561908000032417
"P122",-0.31,"invalid",52,"exhale","correct",0.378830200002994
"P122",-0.31,"valid",53,"exhale","correct",0.497407499991823
"P122",10,"catch",54,"exhale","correct",NA
"P122",0.31,"invalid",55,"exhale","correct",0.370982200023718
"P122",-0.31,"valid",56,"exhale","correct",0.467101600021124
"P122",0.31,"valid",57,"exhale","correct",0.320647499989718
"P122",-0.31,"invalid",58,"exhale","correct",0.913380399986636
"P122",0.31,"invalid",59,"exhale","correct",0.534078199998476
"P122",10,"catch",0,"inhale","correct",NA
"P122",10,"catch",1,"inhale","correct",NA
"P122",0.31,"invalid",2,"inhale","correct",0.462469599966425
"P122",0.31,"invalid",3,"inhale","correct",0.372004900011234
"P122",-0.31,"valid",4,"inhale","correct",0.341429899970535
"P122",-0.31,"invalid",5,"inhale","correct",0.397652799962088
"P122",0.31,"valid",6,"inhale","correct",0.341057599987835
"P122",-0.31,"invalid",7,"inhale","correct",0.493102099979296
"P122",-0.31,"valid",8,"inhale","correct",0.293576899974141
"P122",-0.31,"invalid",9,"inhale","correct",0.434734099952038
"P122",0.31,"invalid",10,"inhale","correct",0.365466299990658
"P122",-0.31,"invalid",11,"inhale","correct",0.353174899995793
"P122",0.31,"valid",12,"inhale","correct",0.29787829995621
"P122",10,"catch",13,"inhale","incorrect",0.303985800012015
"P122",-0.31,"invalid",14,"inhale","correct",0.461618400004227
"P122",-0.31,"valid",15,"inhale","correct",0.414276299998164
"P122",10,"catch",16,"inhale","correct",NA
"P122",10,"catch",17,"inhale","correct",NA
"P122",0.31,"invalid",18,"inhale","correct",0.437906300008763
"P122",10,"catch",19,"inhale","correct",NA
"P122",0.31,"invalid",20,"inhale","correct",0.369673300010618
"P122",-0.31,"valid",21,"inhale","correct",0.48011480004061
"P122",0.31,"valid",22,"inhale","correct",0.399680599977728
"P122",-0.31,"invalid",23,"inhale","correct",0.367025000043213
"P122",0.31,"valid",24,"inhale","correct",0.342971400008537
"P122",-0.31,"invalid",25,"inhale","correct",0.425674300000537
"P122",-0.31,"valid",26,"inhale","correct",0.40248370001791
"P122",0.31,"valid",27,"inhale","correct",0.32429439999396
"P122",10,"catch",28,"inhale","correct",NA
"P122",0.31,"valid",29,"inhale","correct",0.454199800034985
"P122",0.31,"valid",30,"inhale","correct",0.423039699962828
"P122",-0.31,"valid",31,"inhale","correct",0.441230500000529
"P122",0.31,"valid",32,"inhale","correct",0.406193599977996
"P122",-0.31,"invalid",33,"inhale","correct",0.456118900037836
"P122",10,"catch",34,"inhale","correct",NA
"P122",0.31,"valid",35,"inhale","correct",0.51122210000176
"P122",-0.31,"invalid",36,"inhale","correct",0.401195399987046
"P122",0.31,"invalid",37,"inhale","correct",0.427865300036501
"P122",0.31,"invalid",38,"inhale","correct",0.413576400023885
"P122",0.31,"valid",39,"inhale","correct",0.864361700019799
"P122",0.31,"invalid",40,"inhale","correct",0.465430499985814
"P122",10,"catch",41,"inhale","correct",NA
"P122",-0.31,"valid",42,"inhale","correct",0.457500000018626
"P122",10,"catch",43,"inhale","correct",NA
"P122",0.31,"invalid",44,"inhale","correct",0.34779599995818
"P122",0.31,"invalid",45,"inhale","correct",0.3792056000093
"P122",0.31,"valid",46,"inhale","correct",0.386062500008848
"P122",-0.31,"valid",47,"inhale","correct",0.414124900009483
"P122",-0.31,"invalid",48,"inhale","correct",0.38082179997582
"P122",10,"catch",49,"inhale","correct",NA
"P122",-0.31,"valid",50,"inhale","correct",0.8959928000113
"P122",-0.31,"valid",51,"inhale","correct",0.465871900029015
"P122",-0.31,"invalid",52,"inhale","correct",0.332295499974862
"P122",-0.31,"valid",53,"inhale","correct",0.857421200023964
"P122",10,"catch",54,"inhale","correct",NA
"P122",0.31,"invalid",55,"inhale","correct",0.396999299991876
"P122",-0.31,"valid",56,"inhale","correct",0.362621499982197
"P122",0.31,"valid",57,"inhale","correct",0.628661800001282
"P122",-0.31,"invalid",58,"inhale","correct",0.415425300016068
"P122",0.31,"invalid",59,"inhale","correct",0.34396490000654
