"participant_ID","target_x","validity","trial","phase","response","rt"
"P132",10,"catch",0,"exhale","correct",NA
"P132",10,"catch",1,"exhale","correct",NA
"P132",0.31,"invalid",2,"exhale","correct",0.456381200114265
"P132",0.31,"invalid",3,"exhale","correct",0.413808299927041
"P132",-0.31,"valid",4,"exhale","correct",0.372262199874967
"P132",-0.31,"invalid",5,"exhale","correct",0.420573999872431
"P132",0.31,"valid",6,"exhale","correct",0.383752600057051
"P132",-0.31,"invalid",7,"exhale","correct",0.40675859991461
"P132",-0.31,"valid",8,"exhale","correct",0.44880190002732
"P132",-0.31,"invalid",9,"exhale","correct",0.446642899885774
"P132",0.31,"invalid",10,"exhale","correct",0.398452199995518
"P132",-0.31,"invalid",11,"exhale","correct",0.432107900036499
"P132",0.31,"valid",12,"exhale","correct",0.488029799889773
"P132",10,"catch",13,"exhale","correct",NA
"P132",-0.31,"invalid",14,"exhale","correct",0.408235699869692
"P132",-0.31,"valid",15,"exhale","correct",0.382370899897069
"P132",10,"catch",16,"exhale","correct",NA
"P132",10,"catch",17,"exhale","correct",NA
"P132",0.31,"invalid",18,"exhale","correct",0.404561999952421
"P132",10,"catch",19,"exhale","correct",NA
"P132",0.31,"invalid",20,"exhale","correct",0.473832000046968
"P132",-0.31,"valid",21,"exhale","correct",0.668084100121632
"P132",0.31,"valid",22,"exhale","correct",0.37901940010488
"P132",-0.31,"invalid",23,"exhale","correct",0.411657999968156
"P132",0.31,"valid",24,"exhale","correct",0.452632099855691
"P132",-0.31,"invalid",25,"exhale","correct",0.392274599988014
"P132",-0.31,"valid",26,"exhale","correct",0.392519599990919
"P132",0.31,"valid",27,"exhale","correct",0.527523800032213
"P132",10,"catch",28,"exhale","correct",NA
"P132",0.31,"valid",29,"exhale","correct",0.358470899984241
"P132",0.31,"valid",30,"exhale","correct",0.428298400016502
"P132",-0.31,"valid",31,"exhale","correct",0.340591100044549
"P132",0.31,"valid",32,"exhale","correct",0.438315800158307
"P132",-0.31,"invalid",33,"exhale","correct",0.717688799835742
"P132",10,"catch",34,"exhale","correct",NA
"P132",0.31,"valid",35,"exhale","correct",0.436968900030479
"P132",-0.31,"invalid",36,"exhale","correct",0.432712499983609
"P132",0.31,"invalid",37,"exhale","correct",0.468319700099528
"P132",0.31,"invalid",38,"exhale","correct",0.494886199943721
"P132",0.31,"valid",39,"exhale","correct",0.54207960003987
"P132",0.31,"invalid",40,"exhale","correct",0.457008900120854
"P132",10,"catch",41,"exhale","correct",NA
"P132",-0.31,"valid",42,"exhale","correct",0.447939899982885
"P132",10,"catch",43,"exhale","correct",NA
"P132",0.31,"invalid",44,"exhale","correct",0.519517900189385
"P132",0.31,"invalid",45,"exhale","correct",0.427977700019255
"P132",0.31,"valid",46,"exhale","correct",0.4006828002166
"P132",-0.31,"valid",47,"exhale","correct",0.49647229979746
"P132",-0.31,"invalid",48,"exhale","correct",0.417447400046512
"P132",10,"catch",49,"exhale","correct",NA
"P132",-0.31,"valid",50,"exhale","correct",0.408465000102296
"P132",-0.31,"valid",51,"exhale","correct",0.463821299839765
"P132",-0.31,"invalid",52,"exhale","correct",0.493833500193432
"P132",-0.31,"valid",53,"exhale","correct",0.364258900051937
"P132",10,"catch",54,"exhale","correct",NA
"P132",0.31,"invalid",55,"exhale","correct",0.450722899986431
"P132",-0.31,"valid",56,"exhale","correct",0.437520599924028
"P132",0.31,"valid",57,"exhale","correct",0.4493180999998
"P132",-0.31,"invalid",58,"exhale","correct",0.469345800112933
"P132",0.31,"invalid",59,"exhale","correct",0.530895800096914
"P132",10,"catch",0,"inhale","correct",NA
"P132",10,"catch",1,"inhale","correct",NA
"P132",0.31,"invalid",2,"inhale","correct",0.497241199947894
"P132",0.31,"invalid",3,"inhale","correct",0.561250499915332
"P132",-0.31,"valid",4,"inhale","correct",0.411799799883738
"P132",-0.31,"invalid",5,"inhale","correct",0.392676299903542
"P132",0.31,"valid",6,"inhale","correct",0.36229750001803
"P132",-0.31,"invalid",7,"inhale","correct",0.35940369986929
"P132",-0.31,"valid",8,"inhale","correct",0.397159700049087
"P132",-0.31,"invalid",9,"inhale","correct",0.400815600063652
"P132",0.31,"invalid",10,"inhale","correct",0.413651200011373
"P132",-0.31,"invalid",11,"inhale","correct",0.520602000178769
"P132",0.31,"valid",12,"inhale","correct",0.385683099972084
"P132",10,"catch",13,"inhale","correct",NA
"P132",-0.31,"invalid",14,"inhale","correct",0.498931600013748
"P132",-0.31,"valid",15,"inhale","correct",0.421032600104809
"P132",10,"catch",16,"inhale","correct",NA
"P132",10,"catch",17,"inhale","correct",NA
"P132",0.31,"invalid",18,"inhale","correct",0.436184300109744
"P132",10,"catch",19,"inhale","correct",NA
"P132",0.31,"invalid",20,"inhale","correct",0.5122433998622
"P132",-0.31,"valid",21,"inhale","correct",0.484802699880674
"P132",0.31,"valid",22,"inhale","correct",0.503930100006983
"P132",-0.31,"invalid",23,"inhale","correct",0.518345500109717
"P132",0.31,"valid",24,"inhale","correct",0.287028199993074
"P132",-0.31,"invalid",25,"inhale","correct",0.450963899958879
"P132",-0.31,"valid",26,"inhale","correct",0.405383000150323
"P132",0.31,"valid",27,"inhale","correct",0.362521999981254
"P132",10,"catch",28,"inhale","correct",NA
"P132",0.31,"valid",29,"inhale","correct",0.469249099958688
"P132",0.31,"valid",30,"inhale","correct",0.363143200054765
"P132",-0.31,"valid",31,"inhale","correct",0.370840300107375
"P132",0.31,"valid",32,"inhale","correct",0.448510800022632
"P132",-0.31,"invalid",33,"inhale","correct",0.434678100049496
"P132",10,"catch",34,"inhale","correct",NA
"P132",0.31,"valid",35,"inhale","correct",0.379754499997944
"P132",-0.31,"invalid",36,"inhale","correct",0.441841199994087
"P132",0.31,"invalid",37,"inhale","correct",0.498434799956158
"P132",0.31,"invalid",38,"inhale","correct",0.449291599914432
"P132",0.31,"valid",39,"inhale","correct",0.375597600126639
"P132",0.31,"invalid",40,"inhale","correct",0.488001300022006
"P132",10,"catch",41,"inhale","correct",NA
"P132",-0.31,"valid",42,"inhale","correct",0.399860800011083
"P132",10,"catch",43,"inhale","correct",NA
"P132",0.31,"invalid",44,"inhale","correct",0.466869799885899
"P132",0.31,"invalid",45,"inhale","correct",0.430308100068942
"P132",0.31,"valid",46,"inhale","correct",0.387445200001821
"P132",-0.31,"valid",47,"inhale","correct",0.517686299979687
"P132",-0.31,"invalid",48,"inhale","correct",0.427481299964711
"P132",10,"catch",49,"inhale","correct",NA
"P132",-0.31,"valid",50,"inhale","correct",0.407522300025448
"P132",-0.31,"valid",51,"inhale","correct",0.454919700045139
"P132",-0.31,"invalid",52,"inhale","correct",0.418560100020841
"P132",-0.31,"valid",53,"inhale","correct",0.356946000130847
"P132",10,"catch",54,"inhale","correct",NA
"P132",0.31,"invalid",55,"inhale","correct",0.477415599860251
"P132",-0.31,"valid",56,"inhale","correct",0.336398100014776
"P132",0.31,"valid",57,"inhale","correct",0.365215199999511
"P132",-0.31,"invalid",58,"inhale","correct",0.428082400001585
"P132",0.31,"invalid",59,"inhale","correct",0.309092100011185
