"participant_ID","target_x","validity","trial","phase","response","rt"
"P144",10,"catch",0,"exhale","correct",NA
"P144",10,"catch",1,"exhale","correct",NA
"P144",0.31,"invalid",2,"exhale","correct",0.394567199999074
"P144",0.31,"invalid",3,"exhale","correct",0.364814999998998
"P144",-0.31,"valid",4,"exhale","correct",0.443478900000628
"P144",-0.31,"invalid",5,"exhale","correct",0.434237600000415
"P144",0.31,"valid",6,"exhale","correct",0.343325499999992
"P144",-0.31,"invalid",7,"exhale","correct",0.483693199999834
"P144",-0.31,"valid",8,"exhale","correct",0.490358099999867
"P144",-0.31,"invalid",9,"exhale","correct",0.571447799999078
"P144",0.31,"invalid",10,"exhale","correct",0.458425099999658
"P144",-0.31,"invalid",11,"exhale","correct",0.445328100000552
"P144",0.31,"valid",12,"exhale","correct",0.423759899998913
"P144",10,"catch",13,"exhale","correct",NA
"P144",-0.31,"invalid",14,"exhale","correct",0.42906530000073
"P144",-0.31,"valid",15,"exhale","correct",0.439065599999594
"P144",10,"catch",16,"exhale","correct",NA
"P144",10,"catch",17,"exhale","correct",NA
"P144",0.31,"invalid",18,"exhale","correct",0.408487500000774
"P144",10,"catch",19,"exhale","correct",NA
"P144",0.31,"invalid",20,"exhale","correct",0.484114099999715
"P144",-0.31,"valid",21,"exhale","correct",0.495795400000134
"P144",0.31,"valid",22,"exhale","correct",0.462937999998758
"P144",-0.31,"invalid",23,"exhale","correct",0.377894500001275
"P144",0.31,"valid",24,"exhale","correct",0.358711000000767
"P144",-0.31,"invalid",25,"exhale","correct",0.414840999999797
"P144",-0.31,"valid",26,"exhale","correct",0.348132299999634
"P144",0.31,"valid",27,"exhale","correct",0.407525800001167
"P144",10,"catch",28,"exhale","correct",NA
"P144",0.31,"valid",29,"exhale","correct",0.347455499999342
"P144",0.31,"valid",30,"exhale","correct",0.390683999999965
"P144",-0.31,"valid",31,"exhale","correct",0.456276799999614
"P144",0.31,"valid",32,"exhale","correct",0.388880100001188
"P144",-0.31,"invalid",33,"exhale","correct",0.405695199999172
"P144",10,"catch",34,"exhale","correct",NA
"P144",0.31,"valid",35,"exhale","correct",0.379535199999737
"P144",-0.31,"invalid",36,"exhale","correct",0.442137600000933
"P144",0.31,"invalid",37,"exhale","correct",0.44622690000142
"P144",0.31,"invalid",38,"exhale","correct",0.503822600001513
"P144",0.31,"valid",39,"exhale","correct",0.40568020000137
"P144",0.31,"invalid",40,"exhale","correct",0.515663800000766
"P144",10,"catch",41,"exhale","correct",NA
"P144",-0.31,"valid",42,"exhale","correct",0.386586099999477
"P144",10,"catch",43,"exhale","correct",NA
"P144",0.31,"invalid",44,"exhale","correct",0.367606499999965
"P144",0.31,"invalid",45,"exhale","correct",0.372352700000192
"P144",0.31,"valid",46,"exhale","correct",0.396624700000757
"P144",-0.31,"valid",47,"exhale","correct",0.386066400000345
"P144",-0.31,"invalid",48,"exhale","correct",0.444364900000437
"P144",10,"catch",49,"exhale","correct",NA
"P144",-0.31,"valid",50,"exhale","correct",0.369290799999362
"P144",-0.31,"valid",51,"exhale","correct",0.384004800000184
"P144",-0.31,"invalid",52,"exhale","correct",0.440458299999591
"P144",-0.31,"valid",53,"exhale","correct",0.485024900001008
"P144",10,"catch",54,"exhale","correct",NA
"P144",0.31,"invalid",55,"exhale","correct",0.394353499999852
"P144",-0.31,"valid",56,"exhale","correct",0.465497200000755
"P144",0.31,"valid",57,"exhale","correct",0.50259780000124
"P144",-0.31,"invalid",58,"exhale","correct",0.601189999999406
"P144",0.31,"invalid",59,"exhale","correct",0.440775500001109
"P144",10,"catch",0,"inhale","correct",NA
"P144",10,"catch",1,"inhale","correct",NA
"P144",0.31,"invalid",2,"inhale","correct",0.390070899999046
"P144",0.31,"invalid",3,"inhale","correct",0.708796299999449
"P144",-0.31,"valid",4,"inhale","correct",0.484073300000091
"P144",-0.31,"invalid",5,"inhale","correct",0.448730699999942
"P144",0.31,"valid",6,"inhale","correct",0.426706500000364
"P144",-0.31,"invalid",7,"inhale","correct",0.443807300000117
"P144",-0.31,"valid",8,"inhale","correct",0.369493400001375
"P144",-0.31,"invalid",9,"inhale","correct",0.362322299999505
"P144",0.31,"invalid",10,"inhale","correct",0.415304600001036
"P144",-0.31,"invalid",11,"inhale","correct",0.410832500001561
"P144",0.31,"valid",12,"inhale","correct",0.376954900000783
"P144",10,"catch",13,"inhale","correct",NA
"P144",-0.31,"invalid",14,"inhale","correct",0.454186300001311
"P144",-0.31,"valid",15,"inhale","correct",0.469212300000436
"P144",10,"catch",16,"inhale","correct",NA
"P144",10,"catch",17,"inhale","correct",NA
"P144",0.31,"invalid",18,"inhale","correct",0.450402200000099
"P144",10,"catch",19,"inhale","correct",NA
"P144",0.31,"invalid",20,"inhale","correct",0.394821699999738
"P144",-0.31,"valid",21,"inhale","correct",0.37322789999962
"P144",0.31,"valid",22,"inhale","correct",0.340502600000036
"P144",-0.31,"invalid",23,"inhale","correct",0.390286199999537
"P144",0.31,"valid",24,"inhale","correct",0.377555400000347
"P144",-0.31,"invalid",25,"inhale","correct",0.407597600000372
"P144",-0.31,"valid",26,"inhale","correct",0.343891200000144
"P144",0.31,"valid",27,"inhale","correct",0.343198000000484
"P144",10,"catch",28,"inhale","correct",NA
"P144",0.31,"valid",29,"inhale","correct",0.479208800001288
"P144",0.31,"valid",30,"inhale","correct",0.365592900001502
"P144",-0.31,"valid",31,"inhale","correct",0.346349399998871
"P144",0.31,"valid",32,"inhale","correct",0.377126399998815
"P144",-0.31,"invalid",33,"inhale","correct",0.380074500000774
"P144",10,"catch",34,"inhale","correct",NA
"P144",0.31,"valid",35,"inhale","correct",0.445501800000784
"P144",-0.31,"invalid",36,"inhale","correct",0.463357500000711
"P144",0.31,"invalid",37,"inhale","correct",0.388173199997254
"P144",0.31,"invalid",38,"inhale","correct",0.371371299999737
"P144",0.31,"valid",39,"inhale","correct",0.356147599999531
"P144",0.31,"invalid",40,"inhale","correct",0.420502500001021
"P144",10,"catch",41,"inhale","correct",NA
"P144",-0.31,"valid",42,"inhale","correct",0.434888399999181
"P144",10,"catch",43,"inhale","correct",NA
"P144",0.31,"invalid",44,"inhale","correct",0.391706599999452
"P144",0.31,"invalid",45,"inhale","correct",0.418072999997094
"P144",0.31,"valid",46,"inhale","correct",0.365234500000952
"P144",-0.31,"valid",47,"inhale","correct",0.368810799998755
"P144",-0.31,"invalid",48,"inhale","correct",0.42061620000095
"P144",10,"catch",49,"inhale","correct",NA
"P144",-0.31,"valid",50,"inhale","correct",0.453007799998886
"P144",-0.31,"valid",51,"inhale","correct",0.737929399998393
"P144",-0.31,"invalid",52,"inhale","correct",0.376876300000731
"P144",-0.31,"valid",53,"inhale","correct",0.320417900002212
"P144",10,"catch",54,"inhale","incorrect",0.294041400000424
"P144",0.31,"invalid",55,"inhale","correct",0.442333099999814
"P144",-0.31,"valid",56,"inhale","correct",0.394880700001522
"P144",0.31,"valid",57,"inhale","correct",0.35627999999997
"P144",-0.31,"invalid",58,"inhale","correct",0.395663100000093
"P144",0.31,"invalid",59,"inhale","correct",0.372508399999788
