"participant_ID","target_x","validity","trial","phase","response","rt"
"P149",10,"catch",0,"inhale","correct",NA
"P149",10,"catch",1,"inhale","correct",NA
"P149",0.31,"invalid",2,"inhale","correct",0.364584299997659
"P149",0.31,"invalid",3,"inhale","correct",0.319161500010523
"P149",-0.31,"valid",4,"inhale","correct",0.368801000004169
"P149",-0.31,"invalid",5,"inhale","correct",0.377511099999538
"P149",0.31,"valid",6,"inhale","correct",0.33512289999635
"P149",-0.31,"invalid",7,"inhale","correct",0.319048699995619
"P149",-0.31,"valid",8,"inhale","correct",0.36308489998919
"P149",-0.31,"invalid",9,"inhale","correct",0.341149699990638
"P149",0.31,"invalid",10,"inhale","correct",0.288865399998031
"P149",-0.31,"invalid",11,"inhale","correct",0.364158600001247
"P149",0.31,"valid",12,"inhale","correct",0.343308899988187
"P149",10,"catch",13,"inhale","correct",NA
"P149",-0.31,"invalid",14,"inhale","correct",0.367745199997444
"P149",-0.31,"valid",15,"inhale","correct",0.3999155999918
"P149",10,"catch",16,"inhale","correct",NA
"P149",10,"catch",17,"inhale","correct",NA
"P149",0.31,"invalid",18,"inhale","correct",0.462845200003358
"P149",10,"catch",19,"inhale","correct",NA
"P149",0.31,"invalid",20,"inhale","correct",0.454646199999843
"P149",-0.31,"valid",21,"inhale","correct",0.425840900003095
"P149",0.31,"valid",22,"inhale","correct",0.395045500001288
"P149",-0.31,"invalid",23,"inhale","correct",0.356922899998608
"P149",0.31,"valid",24,"inhale","correct",0.333984299999429
"P149",-0.31,"invalid",25,"inhale","correct",0.345315500002471
"P149",-0.31,"valid",26,"inhale","correct",0.36554340001021
"P149",0.31,"valid",27,"inhale","correct",0.381833999999799
"P149",10,"catch",28,"inhale","correct",NA
"P149",0.31,"valid",29,"inhale","correct",0.390968799998518
"P149",0.31,"valid",30,"inhale","correct",0.317749699999695
"P149",-0.31,"valid",31,"inhale","correct",0.374222000013106
"P149",0.31,"valid",32,"inhale","correct",0.30650940000487
"P149",-0.31,"invalid",33,"inhale","correct",0.314924999998766
"P149",10,"catch",34,"inhale","correct",NA
"P149",0.31,"valid",35,"inhale","correct",0.35101179999765
"P149",-0.31,"invalid",36,"inhale","correct",0.418026900006225
"P149",0.31,"invalid",37,"inhale","correct",0.372647800002596
"P149",0.31,"invalid",38,"inhale","correct",0.42422610000358
"P149",0.31,"valid",39,"inhale","correct",0.416176400001859
"P149",0.31,"invalid",40,"inhale","correct",0.435368199992809
"P149",10,"catch",41,"inhale","correct",NA
"P149",-0.31,"valid",42,"inhale","correct",0.499807699990924
"P149",10,"catch",43,"inhale","correct",NA
"P149",0.31,"invalid",44,"inhale","correct",0.440402299995185
"P149",0.31,"invalid",45,"inhale","correct",0.403491599994595
"P149",0.31,"valid",46,"inhale","correct",0.345891999997548
"P149",-0.31,"valid",47,"inhale","correct",0.399819600002957
"P149",-0.31,"invalid",48,"inhale","correct",0.448270199995022
"P149",10,"catch",49,"inhale","correct",NA
"P149",-0.31,"valid",50,"inhale","correct",0.427511199988658
"P149",-0.31,"valid",51,"inhale","correct",0.37061719999474
"P149",-0.31,"invalid",52,"inhale","correct",0.40412419999484
"P149",-0.31,"valid",53,"inhale","correct",0.358553099998971
"P149",10,"catch",54,"inhale","correct",NA
"P149",0.31,"invalid",55,"inhale","correct",0.374055099993711
"P149",-0.31,"valid",56,"inhale","correct",0.362529800011544
"P149",0.31,"valid",57,"inhale","correct",0.394755999994231
"P149",-0.31,"invalid",58,"inhale","correct",0.455969200003892
"P149",0.31,"invalid",59,"inhale","correct",0.432799600006547
"P149",10,"catch",0,"exhale","correct",NA
"P149",10,"catch",1,"exhale","correct",NA
"P149",0.31,"invalid",2,"exhale","correct",0.416219999999157
"P149",0.31,"invalid",3,"exhale","correct",0.360697199997958
"P149",-0.31,"valid",4,"exhale","correct",0.3398801000003
"P149",-0.31,"invalid",5,"exhale","correct",0.463343799987342
"P149",0.31,"valid",6,"exhale","correct",0.408070699995733
"P149",-0.31,"invalid",7,"exhale","correct",0.437626800005091
"P149",-0.31,"valid",8,"exhale","correct",0.363213500007987
"P149",-0.31,"invalid",9,"exhale","correct",0.385286999997334
"P149",0.31,"invalid",10,"exhale","correct",0.333930199994938
"P149",-0.31,"invalid",11,"exhale","correct",0.307488699996611
"P149",0.31,"valid",12,"exhale","correct",0.368268399994122
"P149",10,"catch",13,"exhale","correct",NA
"P149",-0.31,"invalid",14,"exhale","correct",0.404663499997696
"P149",-0.31,"valid",15,"exhale","correct",0.377479999995558
"P149",10,"catch",16,"exhale","correct",NA
"P149",10,"catch",17,"exhale","correct",NA
"P149",0.31,"invalid",18,"exhale","correct",0.357050699996762
"P149",10,"catch",19,"exhale","correct",NA
"P149",0.31,"invalid",20,"exhale","correct",0.36949050000112
"P149",-0.31,"valid",21,"exhale","correct",0.390858600003412
"P149",0.31,"valid",22,"exhale","correct",0.346371000006911
"P149",-0.31,"invalid",23,"exhale","correct",0.453213100001449
"P149",0.31,"valid",24,"exhale","correct",0.39147960000264
"P149",-0.31,"invalid",25,"exhale","correct",0.365696599998046
"P149",-0.31,"valid",26,"exhale","correct",0.344833900002413
"P149",0.31,"valid",27,"exhale","correct",0.373056299999007
"P149",10,"catch",28,"exhale","correct",NA
"P149",0.31,"valid",29,"exhale","correct",0.414572800000315
"P149",0.31,"valid",30,"exhale","correct",0.369212999998126
"P149",-0.31,"valid",31,"exhale","correct",0.336374799997429
"P149",0.31,"valid",32,"exhale","correct",0.345585299990489
"P149",-0.31,"invalid",33,"exhale","correct",0.453047499991953
"P149",10,"catch",34,"exhale","correct",NA
"P149",0.31,"valid",35,"exhale","correct",0.394296099999337
"P149",-0.31,"invalid",36,"exhale","correct",0.381772499997169
"P149",0.31,"invalid",37,"exhale","correct",0.374651799997082
"P149",0.31,"invalid",38,"exhale","correct",0.344184500005213
"P149",0.31,"valid",39,"exhale","correct",0.38930499998969
"P149",0.31,"invalid",40,"exhale","correct",0.320366399988416
"P149",10,"catch",41,"exhale","correct",NA
"P149",-0.31,"valid",42,"exhale","correct",0.421864599993569
"P149",10,"catch",43,"exhale","correct",NA
"P149",0.31,"invalid",44,"exhale","correct",0.743247899998096
"P149",0.31,"invalid",45,"exhale","correct",0.514072499994654
"P149",0.31,"valid",46,"exhale","correct",0.514649999997346
"P149",-0.31,"valid",47,"exhale","correct",0.523027199989883
"P149",-0.31,"invalid",48,"exhale","correct",0.570490300000529
"P149",10,"catch",49,"exhale","correct",NA
"P149",-0.31,"valid",50,"exhale","correct",0.3926841999928
"P149",-0.31,"valid",51,"exhale","correct",0.31784499999776
"P149",-0.31,"invalid",52,"exhale","correct",0.410561900003813
"P149",-0.31,"valid",53,"exhale","correct",0.385790299988003
"P149",10,"catch",54,"exhale","correct",NA
"P149",0.31,"invalid",55,"exhale","correct",0.480012700005318
"P149",-0.31,"valid",56,"exhale","correct",0.463727999987896
"P149",0.31,"valid",57,"exhale","correct",0.519988999993075
"P149",-0.31,"invalid",58,"exhale","correct",0.523156199997175
"P149",0.31,"invalid",59,"exhale","correct",0.347097000005306
