"participant_ID","position","trial","phase","response","rt"
"P105","down",0,"exhale","correct",0.448214899999584
"P105","right",1,"exhale","correct",0.440545599998586
"P105","right",2,"inhale","correct",0.419129600000815
"P105","up",3,"exhale","correct",0.421106100000543
"P105","catch",4,"exhale","correct",NA
"P105","catch",5,"inhale","correct",NA
"P105","up",6,"inhale","correct",0.305994100001044
"P105","left",7,"exhale","correct",0.341556100000162
"P105","down",8,"inhale","correct",0.364905100001124
"P105","left",9,"exhale","correct",0.377529800000048
"P105","up",10,"exhale","correct",0.340665900001113
"P105","catch",11,"inhale","correct",NA
"P105","down",12,"exhale","correct",0.415286199999173
"P105","left",13,"exhale","correct",0.290135100000043
"P105","down",14,"inhale","correct",0.357063600000401
"P105","up",15,"exhale","correct",0.33387440000115
"P105","left",16,"exhale","correct",0.32768219999889
"P105","right",17,"inhale","correct",0.443610700000136
"P105","catch",18,"exhale","correct",NA
"P105","right",19,"exhale","correct",0.380018300000302
"P105","right",20,"inhale","correct",0.426708599999984
"P105","catch",21,"exhale","correct",NA
"P105","left",22,"exhale","correct",0.388205600000219
"P105","left",23,"inhale","correct",0.370038799999747
"P105","up",24,"exhale","correct",0.389740599999641
"P105","down",25,"inhale","correct",0.355622999999468
"P105","down",26,"exhale","correct",0.310793200000262
"P105","catch",27,"inhale","correct",NA
"P105","right",28,"exhale","correct",0.331934800000454
"P105","up",29,"inhale","correct",0.364921200000026
"P105","catch",30,"exhale","correct",NA
"P105","up",31,"exhale","correct",0.371772299999066
"P105","left",32,"inhale","correct",0.402276099999654
"P105","down",33,"exhale","correct",0.495854700000564
"P105","catch",34,"exhale","correct",NA
"P105","right",35,"inhale","correct",0.391913999999815
"P105","right",36,"exhale","correct",0.386798400000771
"P105","left",37,"inhale","correct",0.384831500001383
"P105","down",38,"exhale","correct",0.463186500001029
"P105","up",39,"inhale","correct",0.42214899999999
"P105","down",40,"inhale","correct",0.415471700000126
"P105","up",41,"exhale","correct",0.451537499999176
"P105","right",42,"inhale","correct",0.36171590000049
"P105","catch",43,"inhale","correct",NA
"P105","left",44,"inhale","correct",0.455399799999213
"P105","down",45,"exhale","correct",0.40252590000091
"P105","right",46,"inhale","correct",0.473264099999142
"P105","up",47,"exhale","correct",0.601853999998639
"P105","left",48,"inhale","correct",0.336342100001275
"P105","catch",49,"exhale","correct",NA
"P105","catch",50,"inhale","correct",NA
"P105","up",51,"inhale","correct",0.560677499999656
"P105","down",52,"inhale","correct",0.355773499999486
"P105","down",53,"exhale","correct",0.384433600000193
"P105","left",54,"exhale","correct",0.327548499999466
"P105","up",55,"inhale","correct",0.343599499999982
"P105","right",56,"exhale","correct",0.373735199998919
"P105","left",57,"inhale","correct",0.556131200000891
"P105","catch",58,"exhale","correct",NA
"P105","right",59,"inhale","correct",0.45419530000072
"P105","catch",0,"inhale","correct",NA
"P105","up",1,"exhale","correct",0.401110200000403
"P105","left",2,"inhale","correct",0.580107399999179
"P105","down",3,"exhale","correct",0.400872499998513
"P105","up",4,"inhale","correct",0.351041899999473
"P105","right",5,"exhale","correct",0.377475899998899
"P105","right",6,"inhale","correct",0.400620899999922
"P105","catch",7,"exhale","correct",NA
"P105","down",8,"inhale","correct",0.570583299999271
"P105","left",9,"exhale","correct",0.43227780000052
"P105","catch",10,"inhale","correct",NA
"P105","up",11,"exhale","correct",0.499570899999526
"P105","up",12,"inhale","correct",0.286750400000528
"P105","catch",13,"exhale","correct",NA
"P105","down",14,"inhale","correct",0.365445200000977
"P105","right",15,"exhale","correct",0.367436099999395
"P105","right",16,"inhale","correct",0.380263499999273
"P105","left",17,"exhale","correct",0.354739700000209
"P105","left",18,"inhale","correct",0.36784809999881
"P105","down",19,"exhale","correct",0.353850100000273
"P105","left",20,"inhale","correct",0.37686819999908
"P105","down",21,"exhale","correct",0.342644799999107
"P105","right",22,"inhale","correct",0.554082000000562
"P105","up",23,"inhale","correct",0.289061100000254
"P105","catch",24,"exhale","correct",NA
"P105","catch",25,"inhale","correct",NA
"P105","up",26,"exhale","correct",0.369854200000191
"P105","left",27,"exhale","correct",0.340212999999494
"P105","right",28,"inhale","correct",0.394598099999712
"P105","down",29,"exhale","correct",0.440174000001207
"P105","down",30,"inhale","correct",0.46898610000062
"P105","left",31,"exhale","correct",0.420254699998623
"P105","up",32,"inhale","correct",0.453842199998689
"P105","right",33,"exhale","correct",0.325529599998845
"P105","left",34,"inhale","correct",0.407234300000709
"P105","right",35,"exhale","correct",0.371454199999789
"P105","down",36,"exhale","correct",0.468817400000262
"P105","catch",37,"inhale","correct",NA
"P105","catch",38,"exhale","correct",NA
"P105","up",39,"exhale","correct",0.496937300000354
"P105","right",40,"exhale","correct",0.463723400000163
"P105","left",41,"inhale","correct",0.534134499999709
"P105","up",42,"inhale","correct",0.378751299998839
"P105","down",43,"exhale","correct",0.368128899999647
"P105","up",44,"exhale","correct",0.389856499999951
"P105","catch",45,"inhale","correct",NA
"P105","down",46,"exhale","correct",0.383886599998732
"P105","catch",47,"inhale","correct",NA
"P105","left",48,"inhale","correct",0.451183699999092
"P105","right",49,"exhale","correct",0.5242429000009
"P105","right",50,"inhale","correct",0.417019599999549
"P105","catch",51,"exhale","correct",NA
"P105","catch",52,"exhale","correct",NA
"P105","up",53,"exhale","correct",0.391760599999543
"P105","down",54,"inhale","correct",0.381286600000749
"P105","right",55,"exhale","correct",0.497221899999204
"P105","left",56,"inhale","correct",0.645089899999221
"P105","left",57,"exhale","correct",0.367142400000375
"P105","down",58,"inhale","correct",0.479972999999518
"P105","up",59,"exhale","correct",0.413236700000198
