"participant_ID","position","trial","phase","response","rt"
"P128","down",0,"exhale","correct",0.297166600001219
"P128","right",1,"inhale","correct",0.37898800000039
"P128","up",2,"exhale","correct",0.289997899999435
"P128","up",3,"inhale","correct",0.578851700000087
"P128","down",4,"exhale","correct",0.239254300002358
"P128","left",5,"inhale","correct",0.254699299999629
"P128","left",6,"exhale","correct",0.266637400000036
"P128","catch",7,"inhale","correct",NA
"P128","down",8,"exhale","correct",0.347368200000346
"P128","right",9,"inhale","correct",0.378623600001447
"P128","left",10,"exhale","correct",0.409151399999246
"P128","right",11,"inhale","correct",0.384068800001842
"P128","catch",12,"exhale","correct",NA
"P128","up",13,"inhale","correct",0.356289900002594
"P128","catch",14,"exhale","correct",NA
"P128","down",15,"inhale","correct",0.385022700000263
"P128","left",16,"exhale","correct",0.37789150000026
"P128","right",17,"inhale","correct",0.384417799999937
"P128","down",18,"exhale","correct",0.353079100001196
"P128","catch",19,"inhale","correct",NA
"P128","right",20,"exhale","correct",0.354427199999918
"P128","left",21,"inhale","correct",0.331561200000579
"P128","right",22,"exhale","correct",0.264797899999394
"P128","up",23,"inhale","correct",0.311953299999004
"P128","right",24,"exhale","correct",0.250915699998586
"P128","up",25,"inhale","correct",0.236455400001432
"P128","catch",26,"exhale","correct",NA
"P128","catch",27,"exhale","correct",NA
"P128","left",28,"inhale","correct",0.313291099999333
"P128","up",29,"exhale","correct",0.279760100002022
"P128","catch",30,"inhale","correct",NA
"P128","up",31,"exhale","correct",0.271484000000783
"P128","up",32,"inhale","correct",0.364413600000262
"P128","catch",33,"exhale","correct",NA
"P128","left",34,"inhale","correct",0.325366299999587
"P128","down",35,"exhale","correct",0.268851099997846
"P128","down",36,"inhale","correct",0.266915399999561
"P128","catch",37,"exhale","correct",NA
"P128","right",38,"inhale","correct",0.309182300003158
"P128","left",39,"exhale","correct",0.326231499999267
"P128","up",40,"inhale","correct",0.347583099999611
"P128","down",41,"exhale","correct",0.349385600002279
"P128","up",42,"inhale","correct",0.317395200003375
"P128","catch",43,"exhale","correct",NA
"P128","down",44,"exhale","correct",0.261340799999743
"P128","right",45,"inhale","correct",0.402310000001307
"P128","left",46,"exhale","correct",0.2811870000005
"P128","down",47,"inhale","correct",0.277459299999464
"P128","left",48,"exhale","correct",0.277089100000012
"P128","left",49,"inhale","correct",0.385995900000125
"P128","right",50,"exhale","correct",0.286685700000817
"P128","up",51,"inhale","correct",0.271232299997791
"P128","up",52,"exhale","correct",0.250330900002155
"P128","right",53,"inhale","correct",0.448082500002783
"P128","down",54,"exhale","correct",0.30682650000017
"P128","catch",55,"inhale","correct",NA
"P128","up",56,"exhale","correct",0.312244699998701
"P128","right",57,"inhale","correct",0.311098900001525
"P128","down",58,"exhale","correct",0.4825047000013
"P128","down",59,"inhale","correct",0.270804199997656
"P128","right",0,"exhale","correct",0.356438499999058
"P128","down",1,"inhale","correct",0.3400692000032
"P128","left",2,"exhale","correct",0.279104400000506
"P128","up",3,"inhale","correct",0.285779800000455
"P128","right",4,"exhale","correct",0.299910099998669
"P128","left",5,"inhale","correct",0.322670300000027
"P128","down",6,"exhale","correct",0.235539900000731
"P128","right",7,"inhale","correct",0.23525890000019
"P128","up",8,"exhale","correct",0.238776700000017
"P128","catch",9,"inhale","correct",NA
"P128","up",10,"exhale","correct",0.253384600000572
"P128","right",11,"inhale","correct",0.248089200002141
"P128","catch",12,"exhale","correct",NA
"P128","down",13,"exhale","correct",0.285110700002406
"P128","up",14,"inhale","correct",0.238294999999198
"P128","left",15,"exhale","correct",0.310500399999
"P128","up",16,"inhale","correct",0.244793199999549
"P128","up",17,"exhale","correct",0.359087199998612
"P128","left",18,"inhale","correct",0.360972300000867
"P128","left",19,"exhale","correct",0.279289099999005
"P128","catch",20,"inhale","correct",NA
"P128","left",21,"inhale","correct",0.345168399999238
"P128","right",22,"exhale","correct",0.281556399997498
"P128","up",23,"inhale","correct",0.238754099998914
"P128","down",24,"exhale","correct",0.250320799998008
"P128","catch",25,"inhale","correct",NA
"P128","right",26,"exhale","correct",0.387276099998417
"P128","up",27,"inhale","correct",0.300518000000011
"P128","right",28,"exhale","correct",0.245276000001468
"P128","catch",29,"inhale","correct",NA
"P128","left",30,"exhale","correct",0.309376000001066
"P128","up",31,"inhale","correct",0.285694199999853
"P128","catch",32,"exhale","correct",NA
"P128","down",33,"inhale","correct",0.338739200000418
"P128","catch",34,"exhale","correct",NA
"P128","left",35,"inhale","correct",0.465471399998933
"P128","up",36,"exhale","correct",0.340547299998434
"P128","catch",37,"inhale","correct",NA
"P128","catch",38,"inhale","correct",NA
"P128","down",39,"exhale","correct",0.307341499999893
"P128","left",40,"inhale","correct",0.353981899999781
"P128","left",41,"exhale","correct",0.238706699998147
"P128","catch",42,"inhale","correct",NA
"P128","left",43,"inhale","correct",0.456392799998866
"P128","down",44,"exhale","correct",0.351067299998249
"P128","catch",45,"inhale","correct",NA
"P128","right",46,"exhale","correct",0.298894400002609
"P128","left",47,"inhale","correct",0.359959500001423
"P128","up",48,"exhale","correct",0.258208999999624
"P128","down",49,"inhale","correct",0.264465899999777
"P128","right",50,"exhale","correct",0.248668200001703
"P128","right",51,"inhale","correct",0.304281699998683
"P128","catch",52,"exhale","correct",NA
"P128","down",53,"exhale","correct",0.359726999999111
"P128","catch",54,"inhale","correct",NA
"P128","right",55,"exhale","correct",0.326895099999092
"P128","left",56,"inhale","correct",0.339276799997606
"P128","right",57,"exhale","correct",0.227079899999808
"P128","down",58,"inhale","correct",0.231653299997561
"P128","down",59,"exhale","correct",0.235297499999433
