"participant_ID","position","trial","phase","response","rt"
"P129","down",0,"exhale","correct",0.603568700000324
"P129","right",1,"inhale","correct",0.519963499998994
"P129","up",2,"exhale","correct",0.563995000000432
"P129","up",3,"inhale","correct",0.353996200003166
"P129","down",4,"exhale","correct",0.501671499998338
"P129","left",5,"inhale","correct",0.609649800000625
"P129","left",6,"exhale","correct",0.509045900002093
"P129","catch",7,"inhale","correct",NA
"P129","down",8,"exhale","correct",0.560332199998811
"P129","right",9,"inhale","correct",0.517741799998475
"P129","left",10,"exhale","correct",0.55571410000266
"P129","right",11,"inhale","correct",0.793044699999882
"P129","catch",12,"exhale","correct",NA
"P129","up",13,"inhale","correct",0.480595499997435
"P129","catch",14,"exhale","correct",NA
"P129","down",15,"inhale","correct",0.495093499997893
"P129","left",16,"exhale","correct",0.486152899997251
"P129","right",17,"inhale","correct",0.511086500002421
"P129","down",18,"exhale","correct",0.48010240000076
"P129","catch",19,"inhale","correct",NA
"P129","right",20,"exhale","correct",0.514308400001028
"P129","left",21,"inhale","correct",0.400875599996652
"P129","right",22,"exhale","correct",0.422384599998622
"P129","up",23,"inhale","correct",0.631939299997612
"P129","right",24,"exhale","correct",0.465006799997354
"P129","up",25,"inhale","correct",0.452673900002992
"P129","catch",26,"exhale","correct",NA
"P129","catch",27,"inhale","correct",NA
"P129","left",28,"exhale","correct",0.474251600000571
"P129","up",29,"inhale","correct",0.591196699999273
"P129","catch",30,"exhale","correct",NA
"P129","up",31,"inhale","correct",0.426350500001718
"P129","up",32,"exhale","correct",0.50835989999905
"P129","catch",33,"inhale","correct",NA
"P129","left",34,"exhale","correct",0.35302490000322
"P129","down",35,"inhale","correct",0.300582199997734
"P129","down",36,"exhale","correct",0.469354799999564
"P129","catch",37,"inhale","correct",NA
"P129","right",38,"exhale","correct",0.528463000002375
"P129","left",39,"inhale","correct",0.480303600001207
"P129","up",40,"exhale","correct",0.381715299998177
"P129","down",41,"inhale","correct",0.550963600002433
"P129","up",42,"exhale","correct",0.463250399996468
"P129","catch",43,"inhale","correct",NA
"P129","down",44,"inhale","correct",0.425172400002339
"P129","right",45,"exhale","correct",0.382205300000351
"P129","left",46,"exhale","correct",0.438558699999703
"P129","down",47,"inhale","correct",0.45805929999915
"P129","left",48,"exhale","correct",0.571682199999486
"P129","left",49,"inhale","correct",0.334755699997913
"P129","right",50,"exhale","correct",0.381980699999986
"P129","up",51,"inhale","correct",0.40874089999852
"P129","up",52,"exhale","correct",0.488428000000567
"P129","right",53,"inhale","correct",0.418276500000502
"P129","down",54,"exhale","correct",0.353688900002453
"P129","catch",55,"inhale","correct",NA
"P129","up",56,"exhale","correct",0.315230099997279
"P129","right",57,"inhale","correct",0.487488599999779
"P129","down",58,"exhale","correct",0.394707799998287
"P129","down",59,"inhale","correct",0.400775600002817
"P129","right",0,"exhale","correct",0.421275100001367
"P129","down",1,"inhale","correct",0.393510899997636
"P129","left",2,"exhale","correct",0.338222099999257
"P129","up",3,"inhale","correct",0.352306700002373
"P129","right",4,"exhale","correct",0.364891600002011
"P129","left",5,"inhale","correct",0.418817699999636
"P129","down",6,"exhale","correct",0.411305300000095
"P129","right",7,"inhale","correct",0.329341500000737
"P129","up",8,"exhale","correct",0.432859900000039
"P129","catch",9,"inhale","correct",NA
"P129","up",10,"exhale","correct",0.354149099999631
"P129","right",11,"inhale","correct",0.376675999999861
"P129","catch",12,"exhale","correct",NA
"P129","down",13,"inhale","correct",0.404161700000259
"P129","up",14,"exhale","correct",0.382650200001081
"P129","left",15,"inhale","correct",0.38434110000162
"P129","up",16,"exhale","correct",0.365271700000449
"P129","up",17,"inhale","correct",0.505954600001132
"P129","left",18,"exhale","correct",0.3609921999996
"P129","left",19,"inhale","correct",0.344989400000486
"P129","catch",20,"exhale","correct",NA
"P129","left",21,"inhale","correct",0.349892700000055
"P129","right",22,"exhale","correct",0.321116200000688
"P129","up",23,"inhale","correct",0.409260399999766
"P129","down",24,"exhale","correct",0.364931799998885
"P129","catch",25,"inhale","correct",NA
"P129","right",26,"exhale","correct",0.358806899999763
"P129","up",27,"inhale","correct",0.352128800001083
"P129","right",28,"exhale","correct",0.352012500003184
"P129","catch",29,"inhale","correct",NA
"P129","left",30,"exhale","correct",0.377949599998828
"P129","up",31,"inhale","correct",0.408232199999475
"P129","catch",32,"exhale","correct",NA
"P129","down",33,"inhale","correct",0.438410100003239
"P129","catch",34,"exhale","correct",NA
"P129","left",35,"inhale","correct",0.402071099997556
"P129","up",36,"exhale","correct",0.308845699997619
"P129","catch",37,"inhale","correct",NA
"P129","catch",38,"exhale","correct",NA
"P129","down",39,"inhale","correct",0.35795169999983
"P129","left",40,"exhale","correct",0.368346899998869
"P129","left",41,"inhale","correct",0.407353399998101
"P129","catch",42,"exhale","correct",NA
"P129","left",43,"exhale","correct",0.565499000000273
"P129","down",44,"inhale","correct",0.346431899997697
"P129","catch",45,"exhale","correct",NA
"P129","right",46,"exhale","correct",0.41086709999945
"P129","left",47,"inhale","correct",0.391745099997934
"P129","up",48,"exhale","correct",0.35057169999709
"P129","down",49,"inhale","correct",0.352515499998844
"P129","right",50,"exhale","correct",0.329216499998438
"P129","right",51,"inhale","correct",0.354377200001181
"P129","catch",52,"exhale","correct",NA
"P129","down",53,"inhale","correct",0.346648499998992
"P129","catch",54,"exhale","correct",NA
"P129","right",55,"inhale","correct",0.386979599999904
"P129","left",56,"exhale","correct",0.606352200000401
"P129","right",57,"inhale","correct",0.323468900001899
"P129","down",58,"exhale","correct",0.460341699999844
"P129","down",59,"inhale","correct",0.322107500000129
