"participant_ID","position","trial","phase","response","rt"
"P137","down",0,"inhale","correct",0.409346599999481
"P137","left",1,"exhale","correct",0.552278900000601
"P137","catch",2,"inhale","correct",NA
"P137","left",3,"exhale","correct",0.470863099999406
"P137","left",4,"inhale","correct",0.4518336000001
"P137","left",5,"exhale","correct",0.922815100000662
"P137","right",6,"inhale","correct",0.455021800000395
"P137","right",7,"exhale","correct",0.789215599999807
"P137","down",8,"inhale","correct",0.505047800001194
"P137","down",9,"exhale","correct",0.504611899999873
"P137","down",10,"inhale","correct",0.381707800001095
"P137","down",11,"exhale","incorrect",NA
"P137","left",12,"exhale","correct",0.555080100000851
"P137","left",13,"inhale","correct",0.495845100000224
"P137","down",14,"exhale","correct",0.461152100000618
"P137","catch",15,"inhale","correct",NA
"P137","right",16,"exhale","correct",0.363228700000036
"P137","left",17,"inhale","correct",0.354691499998808
"P137","catch",18,"exhale","correct",NA
"P137","catch",19,"inhale","correct",NA
"P137","right",20,"exhale","correct",0.460176799999317
"P137","left",21,"inhale","correct",0.400716899999679
"P137","left",22,"exhale","correct",0.79527120000057
"P137","catch",23,"inhale","correct",NA
"P137","catch",24,"exhale","correct",NA
"P137","right",25,"inhale","correct",0.370359099999405
"P137","up",26,"exhale","correct",0.491212199998699
"P137","down",27,"inhale","correct",0.45707880000009
"P137","left",28,"exhale","correct",0.532001800000216
"P137","left",29,"inhale","correct",0.557722499999727
"P137","catch",30,"exhale","correct",NA
"P137","left",31,"inhale","correct",0.646416699999463
"P137","up",32,"exhale","correct",0.533782000000429
"P137","left",33,"inhale","correct",0.58866610000041
"P137","catch",34,"exhale","correct",NA
"P137","up",35,"inhale","correct",0.31895650000115
"P137","up",36,"exhale","correct",0.457409599999664
"P137","down",37,"inhale","correct",0.405859399999827
"P137","right",38,"exhale","correct",0.719157200001064
"P137","right",39,"inhale","correct",0.515659300002881
"P137","down",40,"exhale","correct",0.469277199998032
"P137","catch",41,"inhale","correct",NA
"P137","down",42,"exhale","correct",0.71355549999862
"P137","down",43,"inhale","correct",0.428320099999837
"P137","right",44,"exhale","correct",0.616917900002591
"P137","catch",45,"inhale","correct",NA
"P137","left",46,"exhale","correct",0.38311860000249
"P137","down",47,"inhale","correct",0.517433099998016
"P137","down",48,"exhale","correct",0.396276300001773
"P137","down",49,"inhale","correct",0.404954899997392
"P137","up",50,"exhale","correct",0.65046810000058
"P137","up",51,"inhale","correct",0.469626999998582
"P137","up",52,"exhale","correct",0.624710100000812
"P137","right",53,"inhale","correct",0.67972809999992
"P137","up",54,"exhale","correct",0.890673799996875
"P137","right",55,"inhale","correct",0.803379400000267
"P137","left",56,"exhale","correct",0.712916899999982
"P137","right",57,"inhale","correct",0.829641600001196
"P137","catch",58,"exhale","correct",NA
"P137","catch",59,"inhale","correct",NA
"P137","down",60,"exhale","correct",0.868746899999678
"P137","left",0,"inhale","correct",0.572205100001156
"P137","up",1,"exhale","correct",0.491835100001481
"P137","catch",2,"inhale","correct",NA
"P137","left",3,"exhale","correct",0.491908100000728
"P137","left",4,"inhale","correct",0.475909000000684
"P137","catch",5,"exhale","correct",NA
"P137","right",6,"inhale","correct",0.50971390000268
"P137","right",7,"exhale","correct",0.526072299999214
"P137","up",8,"inhale","correct",0.529070100001263
"P137","up",9,"exhale","correct",0.65473639999982
"P137","catch",10,"inhale","correct",NA
"P137","right",11,"exhale","incorrect",NA
"P137","left",12,"inhale","correct",0.489310499997373
"P137","right",13,"exhale","correct",0.447323599997617
"P137","down",14,"inhale","correct",0.446030000002793
"P137","catch",15,"exhale","correct",NA
"P137","left",16,"inhale","correct",0.395533899998554
"P137","up",17,"exhale","correct",0.438004999999976
"P137","down",18,"inhale","correct",0.693744100000913
"P137","up",19,"exhale","correct",0.495466500000475
"P137","up",20,"inhale","correct",0.434576299998298
"P137","left",21,"exhale","correct",0.500864199999342
"P137","down",22,"inhale","correct",0.406864399999904
"P137","left",23,"exhale","correct",0.543174899998121
"P137","catch",24,"inhale","correct",NA
"P137","up",25,"exhale","correct",0.411179899998388
"P137","up",26,"inhale","correct",0.513063399997918
"P137","catch",27,"exhale","correct",NA
"P137","left",28,"inhale","correct",0.523933500000567
"P137","right",29,"exhale","correct",0.746301700000913
"P137","catch",30,"inhale","correct",NA
"P137","up",31,"exhale","correct",0.411078199998883
"P137","up",32,"inhale","correct",0.374137599999813
"P137","catch",33,"exhale","correct",NA
"P137","catch",34,"exhale","correct",NA
"P137","down",35,"inhale","correct",0.456935000001977
"P137","right",36,"exhale","correct",0.500498099998367
"P137","up",37,"inhale","correct",0.550759499998094
"P137","right",38,"exhale","correct",0.544272800001636
"P137","down",39,"inhale","correct",0.613718900000094
"P137","down",40,"exhale","correct",0.486409699999058
"P137","right",41,"inhale","correct",0.655682500000694
"P137","down",42,"exhale","correct",0.755548000000999
"P137","right",43,"inhale","correct",0.684809899998072
"P137","right",44,"exhale","correct",0.598800499999925
"P137","down",45,"inhale","correct",0.533720600000379
"P137","right",46,"exhale","correct",0.522180299998581
"P137","up",47,"inhale","correct",0.568160499999067
"P137","up",48,"exhale","correct",0.416831499998807
"P137","up",49,"inhale","correct",0.508184999998775
"P137","left",50,"exhale","correct",0.516004700002668
"P137","catch",51,"inhale","correct",NA
"P137","up",52,"exhale","correct",0.510360500000388
"P137","down",53,"inhale","correct",0.531509799999185
"P137","right",54,"exhale","correct",0.536438800001633
"P137","down",55,"inhale","correct",0.517644899999141
"P137","right",56,"exhale","correct",0.866947900001833
"P137","up",57,"inhale","correct",0.516544999998587
"P137","catch",58,"exhale","correct",NA
"P137","catch",59,"inhale","correct",NA
