participant_ID,position,trial,phase,response,rt
P101,left,0,inhale,correct,0.39435560000004
P101,catch,1,exhale,correct,NA
P101,up,2,inhale,correct,0.313161199999968
P101,up,3,exhale,correct,0.313852200000042
P101,down,4,inhale,correct,0.305098200000089
P101,catch,5,exhale,correct,NA
P101,right,6,inhale,correct,0.284763799999951
P101,right,7,exhale,correct,0.373525599999994
P101,left,8,inhale,correct,0.296555099999978
P101,down,9,exhale,correct,0.437315800000079
P101,catch,10,inhale,correct,NA
P101,down,11,exhale,correct,0.313004400000068
P101,left,12,inhale,correct,0.327859099999955
P101,up,13,exhale,correct,0.332142700000077
P101,up,14,inhale,correct,0.311497600000052
P101,left,15,exhale,correct,0.343342099999973
P101,catch,16,inhale,correct,NA
P101,down,17,exhale,correct,0.332478899999956
P101,right,18,inhale,correct,0.346871599999986
P101,right,19,exhale,correct,0.382117300000004
P101,down,20,inhale,correct,0.407916699999987
P101,right,21,exhale,correct,0.361442999999895
P101,left,22,inhale,correct,0.357112099999995
P101,right,23,exhale,correct,0.340539599999943
P101,catch,24,inhale,correct,NA
P101,left,25,exhale,correct,0.258117399999946
P101,up,26,inhale,correct,0.32236690000002
P101,up,27,exhale,correct,0.386167200000045
P101,catch,28,inhale,correct,NA
P101,down,29,exhale,correct,0.284703300000047
P101,down,30,inhale,correct,0.34857420000003
P101,catch,31,exhale,correct,NA
P101,right,32,exhale,correct,0.408280900000022
P101,down,33,inhale,correct,0.384332299999983
P101,up,34,exhale,correct,0.325494899999967
P101,up,35,inhale,correct,0.371633599999996
P101,catch,36,exhale,correct,NA
P101,left,37,inhale,correct,0.325228899999956
P101,left,38,exhale,correct,0.344536800000014
P101,right,39,inhale,correct,0.358861000000047
P101,right,40,exhale,correct,0.302650500000027
P101,left,41,inhale,correct,0.348773999999935
P101,catch,42,exhale,correct,NA
P101,left,43,inhale,correct,0.303547399999957
P101,catch,44,exhale,correct,NA
P101,down,45,inhale,correct,0.279741599999966
P101,right,46,exhale,correct,0.353297600000019
P101,up,47,inhale,correct,0.475141400000098
P101,up,48,exhale,correct,0.332259099999987
P101,down,49,inhale,correct,0.412394300000074
P101,down,50,exhale,correct,0.324755299999993
P101,catch,51,inhale,correct,NA
P101,right,52,exhale,correct,0.326662800000008
P101,down,53,inhale,correct,0.367184999999949
P101,catch,54,exhale,correct,NA
P101,up,55,inhale,correct,0.322315099999969
P101,left,56,exhale,correct,0.395747999999912
P101,up,57,inhale,correct,0.323004400000059
P101,right,58,exhale,correct,0.85665849999998
P101,left,59,exhale,correct,0.353568099999961
P101,down,0,exhale,correct,0.316657200000009
P101,left,1,inhale,correct,0.35224130000006
P101,catch,2,exhale,correct,NA
P101,left,3,exhale,correct,0.29643509999994
P101,right,4,inhale,correct,0.344835399999965
P101,up,5,exhale,correct,0.369432099999926
P101,down,6,inhale,correct,0.3793541
P101,catch,7,exhale,correct,NA
P101,right,8,inhale,correct,0.36777369999993
P101,up,9,exhale,correct,0.367786700000011
P101,down,10,inhale,correct,0.343570200000045
P101,up,11,exhale,correct,0.315639600000054
P101,left,12,inhale,correct,0.346003399999972
P101,catch,13,exhale,correct,NA
P101,right,14,inhale,correct,0.359775800000079
P101,down,15,exhale,correct,0.391198600000052
P101,right,16,inhale,correct,0.351445499999954
P101,up,17,exhale,correct,0.37409660000003
P101,catch,18,inhale,correct,NA
P101,left,19,inhale,correct,0.34817709999993
P101,right,20,exhale,correct,0.335028499999908
P101,catch,21,inhale,correct,NA
P101,right,22,exhale,correct,0.364551099999971
P101,catch,23,inhale,correct,NA
P101,up,24,exhale,correct,0.63104589999989
P101,left,25,inhale,correct,0.308065899999974
P101,down,26,exhale,correct,0.330285900000035
P101,left,27,inhale,correct,0.306282599999804
P101,down,28,exhale,correct,0.31855500000006
P101,up,29,inhale,correct,0.462236700000176
P101,up,30,exhale,correct,0.383119699999952
P101,right,31,inhale,correct,0.28041989999997
P101,up,32,exhale,correct,0.389510599999994
P101,catch,33,inhale,correct,NA
P101,left,34,exhale,correct,0.354008499999964
P101,catch,35,inhale,correct,NA
P101,down,36,inhale,correct,0.344375899999932
P101,down,37,exhale,correct,0.35502919999999
P101,left,38,inhale,correct,0.320311200000106
P101,right,39,inhale,correct,0.329545699999926
P101,right,40,exhale,correct,0.36115830000017
P101,down,41,inhale,correct,0.443811399999959
P101,up,42,exhale,correct,0.334130799999912
P101,right,43,inhale,correct,0.651190499999984
P101,up,44,exhale,correct,0.320634200000086
P101,left,45,inhale,correct,0.322253399999909
P101,down,46,exhale,correct,0.338405100000045
P101,left,47,inhale,correct,0.326760700000023
P101,catch,48,inhale,correct,NA
P101,catch,49,exhale,correct,NA
P101,down,50,inhale,correct,0.293907699999863
P101,catch,51,exhale,correct,NA
P101,catch,52,inhale,correct,NA
P101,down,53,exhale,correct,0.41810640000017
P101,right,54,inhale,correct,0.373744400000078
P101,left,55,exhale,correct,0.414081699999997
P101,up,56,inhale,correct,0.382789000000002
P101,right,57,exhale,correct,0.336344099999906
P101,left,58,inhale,correct,0.325818300000037
P101,up,59,exhale,correct,0.333363700000064
P103,right,0,inhale,correct,0.306059699999878
P103,right,1,exhale,correct,0.310813299999609
P103,up,2,inhale,correct,0.302472599999874
P103,down,3,exhale,correct,0.391738499999974
P103,catch,4,inhale,correct,NA
P103,up,5,exhale,correct,0.355254000000059
P103,left,6,inhale,correct,0.439686700000038
P103,down,7,exhale,correct,0.442489900000055
P103,catch,8,inhale,correct,NA
P103,left,9,exhale,correct,0.448028599999816
P103,up,10,inhale,correct,0.358288000000357
P103,catch,11,exhale,correct,NA
P103,left,12,inhale,correct,0.368286599999919
P103,right,13,exhale,correct,0.384491100000105
P103,down,14,inhale,correct,0.313771499999802
P103,left,15,exhale,correct,0.579181900000094
P103,up,16,inhale,correct,0.371239800000239
P103,right,17,exhale,correct,0.455743399999847
P103,catch,18,inhale,correct,NA
P103,down,19,exhale,correct,0.266571299999669
P103,left,20,inhale,correct,0.377799299999879
P103,left,21,exhale,correct,0.434822499999882
P103,right,22,exhale,correct,0.366259200000059
P103,right,23,inhale,correct,0.349052399999891
P103,catch,24,exhale,correct,NA
P103,down,25,inhale,correct,0.357102200000099
P103,up,26,exhale,correct,0.381853099999717
P103,catch,27,inhale,correct,NA
P103,up,28,exhale,correct,0.306514500000048
P103,down,29,inhale,correct,0.414793400000235
P103,down,30,exhale,correct,0.502424099999644
P103,up,31,inhale,correct,0.390576699999656
P103,right,32,exhale,correct,0.346361200000047
P103,catch,33,inhale,correct,NA
P103,left,34,exhale,correct,0.318600399999923
P103,down,35,inhale,correct,0.424514400000135
P103,left,36,exhale,correct,0.335062999999991
P103,right,37,inhale,correct,0.372232799999892
P103,up,38,exhale,correct,0.371739400000024
P103,catch,39,inhale,correct,NA
P103,down,40,exhale,correct,0.366460400000051
P103,catch,41,inhale,correct,NA
P103,catch,42,exhale,correct,NA
P103,down,43,inhale,correct,0.331398599999829
P103,left,44,exhale,correct,0.549375300000065
P103,left,45,inhale,correct,0.351700300000175
P103,up,46,exhale,correct,0.302571100000023
P103,right,47,inhale,correct,0.343501599999854
P103,right,48,exhale,correct,0.326356699999906
P103,up,49,inhale,correct,0.357723199999782
P103,right,50,exhale,correct,0.313572600000043
P103,catch,51,inhale,correct,NA
P103,down,52,exhale,correct,0.343769399999928
P103,up,53,inhale,correct,0.37566519999973
P103,catch,54,exhale,correct,NA
P103,right,55,inhale,correct,0.408464699999968
P103,up,56,exhale,correct,0.405211300000246
P103,down,57,exhale,correct,0.423572500000319
P103,left,58,inhale,correct,0.471338100000139
P103,left,59,exhale,correct,0.343867200000204
P103,left,0,exhale,correct,0.320628899999974
P103,right,1,inhale,correct,0.363739100000203
P103,right,2,exhale,correct,0.319270999999844
P103,up,3,inhale,correct,0.404590699999972
P103,down,4,exhale,correct,0.356883099999777
P103,left,5,inhale,correct,0.393758000000162
P103,up,6,exhale,correct,0.303282400000171
P103,catch,7,inhale,correct,NA
P103,down,8,exhale,correct,0.336022099999809
P103,catch,9,inhale,correct,NA
P103,down,10,exhale,correct,0.433032800000092
P103,left,11,inhale,correct,0.350445799999761
P103,down,12,exhale,correct,0.383685300000252
P103,left,13,inhale,correct,0.287205300000096
P103,right,14,exhale,correct,0.269199899999876
P103,catch,15,inhale,correct,NA
P103,catch,16,exhale,correct,NA
P103,up,17,inhale,correct,0.334474700000101
P103,right,18,exhale,correct,0.379452700000002
P103,up,19,inhale,correct,0.380513900000096
P103,up,20,inhale,correct,0.325915400000213
P103,catch,21,exhale,correct,NA
P103,left,22,exhale,correct,0.424288100000012
P103,left,23,inhale,correct,0.353643500000089
P103,catch,24,exhale,correct,NA
P103,up,25,exhale,correct,0.324887900000249
P103,down,26,inhale,correct,0.388120400000389
P103,right,27,inhale,correct,0.343188599999849
P103,right,28,exhale,correct,0.416797899999892
P103,down,29,inhale,correct,0.334573399999954
P103,left,30,exhale,correct,0.342991299999994
P103,left,31,inhale,correct,0.391891000000214
P103,down,32,exhale,correct,0.328938900000139
P103,catch,33,inhale,correct,NA
P103,right,34,inhale,correct,0.320602199999939
P103,up,35,exhale,correct,0.359987300000284
P103,catch,36,inhale,correct,NA
P103,right,37,exhale,correct,0.359564299999874
P103,down,38,inhale,correct,0.325686600000154
P103,up,39,exhale,correct,0.360515499999565
P103,left,40,inhale,correct,0.315113900000142
P103,up,41,exhale,correct,0.473893599999883
P103,down,42,inhale,correct,0.342566899999838
P103,right,43,exhale,correct,0.336094100000082
P103,catch,44,inhale,correct,NA
P103,up,45,inhale,correct,0.313013800000135
P103,left,46,exhale,correct,0.395884900000055
P103,right,47,inhale,correct,0.300387499999943
P103,catch,48,inhale,correct,NA
P103,down,49,exhale,correct,0.360476999999719
P103,catch,50,exhale,correct,NA
P103,right,51,inhale,correct,0.336577300000044
P103,up,52,exhale,correct,0.370531399999891
P103,down,53,inhale,correct,0.358553399999892
P103,left,54,exhale,correct,0.355694599999879
P103,catch,55,inhale,correct,NA
P103,up,56,exhale,correct,0.380339400000139
P103,right,57,inhale,correct,0.377182899999752
P103,down,58,exhale,correct,0.353950700000041
P103,left,59,inhale,correct,0.375477099999898
P104,left,0,inhale,correct,0.365565300000526
P104,catch,1,exhale,correct,NA
P104,right,2,inhale,correct,0.403647799999817
P104,right,3,exhale,correct,0.411391499999809
P104,catch,4,inhale,correct,NA
P104,left,5,exhale,correct,0.286263699999836
P104,up,6,inhale,correct,0.378696599999785
P104,down,7,exhale,correct,0.465800700000727
P104,up,8,inhale,correct,0.361513500000001
P104,down,9,exhale,correct,0.491780100000142
P104,catch,10,inhale,correct,NA
P104,down,11,exhale,correct,0.275769400000172
P104,right,12,inhale,correct,0.365512500000477
P104,right,13,exhale,correct,0.319546000000628
P104,left,14,inhale,correct,0.354835099999946
P104,up,15,exhale,correct,0.399036099999648
P104,catch,16,inhale,correct,NA
P104,up,17,exhale,correct,0.333332400000472
P104,down,18,inhale,correct,0.510791699999572
P104,left,19,exhale,correct,0.438290099999904
P104,down,20,inhale,correct,0.291791199999352
P104,up,21,exhale,correct,0.32261600000038
P104,catch,22,inhale,correct,NA
P104,left,23,exhale,correct,0.365877499999442
P104,down,24,inhale,correct,0.399254299999484
P104,up,25,exhale,correct,0.395977099999982
P104,catch,26,inhale,correct,NA
P104,right,27,exhale,correct,0.325984699999935
P104,right,28,inhale,correct,0.431827200000043
P104,left,29,exhale,correct,0.496998200000235
P104,left,30,inhale,correct,0.356980900000053
P104,down,31,exhale,correct,0.676548299999922
P104,left,32,inhale,correct,0.32072960000005
P104,up,33,exhale,correct,0.39093369999955
P104,up,34,inhale,correct,0.460489000000052
P104,catch,35,exhale,correct,NA
P104,down,36,inhale,correct,0.371463100000256
P104,right,37,exhale,correct,0.456251399999928
P104,catch,38,inhale,correct,NA
P104,right,39,inhale,correct,0.324338500000522
P104,right,40,exhale,correct,0.362477499999841
P104,down,41,inhale,correct,0.364588899999944
P104,right,42,exhale,correct,0.309568399999989
P104,catch,43,inhale,correct,NA
P104,left,44,exhale,correct,0.336728899999798
P104,up,45,inhale,correct,0.414795699999559
P104,up,46,exhale,correct,0.555695799999739
P104,catch,47,inhale,correct,NA
P104,left,48,exhale,correct,0.43443600000046
P104,down,49,inhale,correct,0.311170799999672
P104,left,50,exhale,correct,0.34506650000003
P104,right,51,inhale,correct,0.312441600000056
P104,right,52,exhale,correct,0.350079299999379
P104,down,53,inhale,correct,0.408800799999881
P104,catch,54,exhale,correct,NA
P104,down,55,inhale,correct,0.369691900000362
P104,up,56,exhale,correct,0.363824600000044
P104,catch,57,inhale,correct,NA
P104,left,58,exhale,correct,0.301876999999877
P104,up,59,inhale,correct,0.389302900000075
P104,down,0,exhale,correct,0.345688100000189
P104,catch,1,inhale,correct,NA
P104,down,2,exhale,correct,0.40064540000003
P104,right,3,inhale,correct,0.385990499999934
P104,up,4,exhale,correct,0.460370599999806
P104,right,5,inhale,correct,0.32251769999948
P104,left,6,exhale,correct,0.374631799999406
P104,left,7,inhale,correct,0.33974599999965
P104,up,8,exhale,correct,0.368471400000089
P104,catch,9,inhale,correct,NA
P104,left,10,exhale,correct,0.32596040000044
P104,up,11,inhale,correct,0.372298399999636
P104,catch,12,exhale,correct,NA
P104,down,13,inhale,correct,0.369283600000017
P104,up,14,exhale,correct,0.384103700000196
P104,left,15,inhale,correct,0.423081199999615
P104,catch,16,exhale,correct,NA
P104,down,17,inhale,correct,0.376831200000197
P104,right,18,exhale,correct,0.589993099999447
P104,right,19,exhale,correct,0.396945000000414
P104,catch,20,exhale,correct,NA
P104,up,21,inhale,correct,0.451553899999453
P104,right,22,exhale,correct,0.42252549999921
P104,down,23,inhale,correct,0.35405770000034
P104,right,24,exhale,correct,0.440931600000113
P104,left,25,inhale,correct,0.428750499999296
P104,catch,26,exhale,correct,NA
P104,down,27,inhale,correct,0.370885599999383
P104,left,28,exhale,correct,0.464124400000401
P104,up,29,inhale,correct,0.352884899999481
P104,right,30,exhale,correct,0.527434800000265
P104,catch,31,inhale,correct,NA
P104,left,32,exhale,correct,0.346387999999934
P104,left,33,inhale,correct,0.403944799999408
P104,right,34,exhale,correct,0.527619499999673
P104,up,35,inhale,correct,0.362380399999893
P104,catch,36,exhale,correct,NA
P104,up,37,inhale,correct,0.267665399999714
P104,down,38,exhale,correct,0.419579700000213
P104,down,39,inhale,correct,0.365164900000309
P104,left,40,exhale,correct,0.371019400000478
P104,down,41,inhale,correct,0.40321589999985
P104,catch,42,exhale,correct,NA
P104,up,43,inhale,correct,0.285160399999768
P104,down,44,exhale,correct,0.467320199999449
P104,up,45,inhale,correct,0.365148699999736
P104,catch,46,exhale,correct,NA
P104,right,47,inhale,correct,0.308751699999448
P104,right,48,exhale,correct,0.353845300000103
P104,left,49,inhale,correct,0.389382000000296
P104,right,50,exhale,correct,0.347583499999928
P104,catch,51,inhale,correct,NA
P104,up,52,exhale,correct,0.397173199999997
P104,left,53,inhale,correct,0.396847799999705
P104,up,54,exhale,correct,0.501111200000196
P104,left,55,inhale,correct,0.318431000000601
P104,right,56,exhale,correct,0.360457800000404
P104,down,57,inhale,correct,0.517843200000243
P104,catch,58,exhale,correct,NA
P104,down,59,inhale,correct,0.372002699999939
P105,down,0,exhale,correct,0.448214899999584
P105,right,1,exhale,correct,0.440545599998586
P105,right,2,inhale,correct,0.419129600000815
P105,up,3,exhale,correct,0.421106100000543
P105,catch,4,exhale,correct,NA
P105,catch,5,inhale,correct,NA
P105,up,6,inhale,correct,0.305994100001044
P105,left,7,exhale,correct,0.341556100000162
P105,down,8,inhale,correct,0.364905100001124
P105,left,9,exhale,correct,0.377529800000048
P105,up,10,exhale,correct,0.340665900001113
P105,catch,11,inhale,correct,NA
P105,down,12,exhale,correct,0.415286199999173
P105,left,13,exhale,correct,0.290135100000043
P105,down,14,inhale,correct,0.357063600000401
P105,up,15,exhale,correct,0.33387440000115
P105,left,16,exhale,correct,0.32768219999889
P105,right,17,inhale,correct,0.443610700000136
P105,catch,18,exhale,correct,NA
P105,right,19,exhale,correct,0.380018300000302
P105,right,20,inhale,correct,0.426708599999984
P105,catch,21,exhale,correct,NA
P105,left,22,exhale,correct,0.388205600000219
P105,left,23,inhale,correct,0.370038799999747
P105,up,24,exhale,correct,0.389740599999641
P105,down,25,inhale,correct,0.355622999999468
P105,down,26,exhale,correct,0.310793200000262
P105,catch,27,inhale,correct,NA
P105,right,28,exhale,correct,0.331934800000454
P105,up,29,inhale,correct,0.364921200000026
P105,catch,30,exhale,correct,NA
P105,up,31,exhale,correct,0.371772299999066
P105,left,32,inhale,correct,0.402276099999654
P105,down,33,exhale,correct,0.495854700000564
P105,catch,34,exhale,correct,NA
P105,right,35,inhale,correct,0.391913999999815
P105,right,36,exhale,correct,0.386798400000771
P105,left,37,inhale,correct,0.384831500001383
P105,down,38,exhale,correct,0.463186500001029
P105,up,39,inhale,correct,0.42214899999999
P105,down,40,inhale,correct,0.415471700000126
P105,up,41,exhale,correct,0.451537499999176
P105,right,42,inhale,correct,0.36171590000049
P105,catch,43,inhale,correct,NA
P105,left,44,inhale,correct,0.455399799999213
P105,down,45,exhale,correct,0.40252590000091
P105,right,46,inhale,correct,0.473264099999142
P105,up,47,exhale,correct,0.601853999998639
P105,left,48,inhale,correct,0.336342100001275
P105,catch,49,exhale,correct,NA
P105,catch,50,inhale,correct,NA
P105,up,51,inhale,correct,0.560677499999656
P105,down,52,inhale,correct,0.355773499999486
P105,down,53,exhale,correct,0.384433600000193
P105,left,54,exhale,correct,0.327548499999466
P105,up,55,inhale,correct,0.343599499999982
P105,right,56,exhale,correct,0.373735199998919
P105,left,57,inhale,correct,0.556131200000891
P105,catch,58,exhale,correct,NA
P105,right,59,inhale,correct,0.45419530000072
P105,catch,0,inhale,correct,NA
P105,up,1,exhale,correct,0.401110200000403
P105,left,2,inhale,correct,0.580107399999179
P105,down,3,exhale,correct,0.400872499998513
P105,up,4,inhale,correct,0.351041899999473
P105,right,5,exhale,correct,0.377475899998899
P105,right,6,inhale,correct,0.400620899999922
P105,catch,7,exhale,correct,NA
P105,down,8,inhale,correct,0.570583299999271
P105,left,9,exhale,correct,0.43227780000052
P105,catch,10,inhale,correct,NA
P105,up,11,exhale,correct,0.499570899999526
P105,up,12,inhale,correct,0.286750400000528
P105,catch,13,exhale,correct,NA
P105,down,14,inhale,correct,0.365445200000977
P105,right,15,exhale,correct,0.367436099999395
P105,right,16,inhale,correct,0.380263499999273
P105,left,17,exhale,correct,0.354739700000209
P105,left,18,inhale,correct,0.36784809999881
P105,down,19,exhale,correct,0.353850100000273
P105,left,20,inhale,correct,0.37686819999908
P105,down,21,exhale,correct,0.342644799999107
P105,right,22,inhale,correct,0.554082000000562
P105,up,23,inhale,correct,0.289061100000254
P105,catch,24,exhale,correct,NA
P105,catch,25,inhale,correct,NA
P105,up,26,exhale,correct,0.369854200000191
P105,left,27,exhale,correct,0.340212999999494
P105,right,28,inhale,correct,0.394598099999712
P105,down,29,exhale,correct,0.440174000001207
P105,down,30,inhale,correct,0.46898610000062
P105,left,31,exhale,correct,0.420254699998623
P105,up,32,inhale,correct,0.453842199998689
P105,right,33,exhale,correct,0.325529599998845
P105,left,34,inhale,correct,0.407234300000709
P105,right,35,exhale,correct,0.371454199999789
P105,down,36,exhale,correct,0.468817400000262
P105,catch,37,inhale,correct,NA
P105,catch,38,exhale,correct,NA
P105,up,39,exhale,correct,0.496937300000354
P105,right,40,exhale,correct,0.463723400000163
P105,left,41,inhale,correct,0.534134499999709
P105,up,42,inhale,correct,0.378751299998839
P105,down,43,exhale,correct,0.368128899999647
P105,up,44,exhale,correct,0.389856499999951
P105,catch,45,inhale,correct,NA
P105,down,46,exhale,correct,0.383886599998732
P105,catch,47,inhale,correct,NA
P105,left,48,inhale,correct,0.451183699999092
P105,right,49,exhale,correct,0.5242429000009
P105,right,50,inhale,correct,0.417019599999549
P105,catch,51,exhale,correct,NA
P105,catch,52,exhale,correct,NA
P105,up,53,exhale,correct,0.391760599999543
P105,down,54,inhale,correct,0.381286600000749
P105,right,55,exhale,correct,0.497221899999204
P105,left,56,inhale,correct,0.645089899999221
P105,left,57,exhale,correct,0.367142400000375
P105,down,58,inhale,correct,0.479972999999518
P105,up,59,exhale,correct,0.413236700000198
P106,left,0,inhale,correct,0.434404599996924
P106,right,1,exhale,correct,0.372174500000256
P106,right,2,inhale,correct,0.534270799998922
P106,down,3,exhale,correct,0.331920599997829
P106,left,4,exhale,correct,0.393329800001084
P106,up,5,inhale,correct,0.554925699998421
P106,down,6,exhale,correct,0.422539099999995
P106,catch,7,inhale,correct,NA
P106,up,8,inhale,correct,0.40490040000077
P106,catch,9,exhale,correct,NA
P106,right,10,exhale,correct,0.43749200000093
P106,down,11,inhale,correct,0.56865050000124
P106,left,12,exhale,correct,0.453351500000281
P106,down,13,inhale,correct,0.535125599999446
P106,left,14,exhale,correct,0.835750300000655
P106,catch,15,inhale,correct,NA
P106,up,16,exhale,correct,0.364184599999135
P106,catch,17,inhale,correct,NA
P106,up,18,inhale,correct,0.379637999998522
P106,right,19,exhale,correct,0.666998199998488
P106,right,20,inhale,correct,0.523881200002506
P106,up,21,exhale,correct,0.63252840000132
P106,catch,22,inhale,correct,NA
P106,down,23,exhale,correct,0.506172199999128
P106,up,24,inhale,correct,0.765207399999781
P106,left,25,exhale,correct,0.779290999998921
P106,left,26,inhale,correct,0.69605220000085
P106,right,27,exhale,correct,0.497677100000146
P106,catch,28,inhale,correct,NA
P106,down,29,exhale,correct,0.440130200000567
P106,up,30,inhale,correct,0.523777999998856
P106,up,31,exhale,correct,0.813721200000145
P106,left,32,inhale,correct,0.685994899999059
P106,catch,33,exhale,correct,NA
P106,right,34,exhale,correct,0.543440800000099
P106,down,35,inhale,correct,0.886812599997938
P106,left,36,exhale,correct,0.586072500002047
P106,down,37,inhale,correct,0.724378599999909
P106,right,38,exhale,correct,0.736700299999939
P106,catch,39,inhale,correct,NA
P106,right,40,inhale,correct,0.439282999999705
P106,up,41,exhale,correct,0.451415499999712
P106,down,42,inhale,correct,0.67029040000125
P106,down,43,inhale,correct,0.538015900001483
P106,right,44,exhale,correct,0.635593099999824
P106,catch,45,exhale,correct,NA
P106,catch,46,inhale,correct,NA
P106,up,47,inhale,correct,0.443395500002225
P106,left,48,exhale,correct,0.702562800001033
P106,left,49,inhale,correct,0.652649999999994
P106,up,50,exhale,correct,0.640105099999346
P106,right,51,inhale,correct,0.504975199997716
P106,left,52,exhale,correct,0.99555280000277
P106,catch,53,inhale,correct,NA
P106,right,54,exhale,correct,0.701371300001483
P106,catch,55,inhale,correct,NA
P106,left,56,exhale,correct,0.469314000001759
P106,down,57,inhale,correct,0.742364599998837
P106,down,58,exhale,correct,0.563778899999306
P106,up,59,inhale,correct,0.7120963999987
P106,up,0,exhale,correct,0.502452400000038
P106,right,1,inhale,correct,0.457894600000145
P106,down,2,exhale,correct,0.437389899998379
P106,catch,3,inhale,correct,NA
P106,left,4,exhale,correct,0.857845599999564
P106,left,5,inhale,correct,0.541144099999656
P106,up,6,exhale,correct,0.44483290000062
P106,right,7,inhale,correct,0.55871660000048
P106,down,8,exhale,correct,0.452709299999697
P106,catch,9,inhale,correct,NA
P106,down,10,inhale,correct,0.533674099999189
P106,catch,11,exhale,correct,NA
P106,right,12,inhale,correct,0.432364099997358
P106,up,13,exhale,correct,0.592078000001493
P106,up,14,inhale,correct,0.527680799998052
P106,left,15,exhale,correct,0.375214699997741
P106,left,16,inhale,correct,0.397626699999819
P106,catch,17,exhale,correct,NA
P106,right,18,exhale,correct,0.573781700000836
P106,down,19,inhale,correct,0.577087399997254
P106,left,20,exhale,correct,0.531835899997532
P106,catch,21,inhale,correct,NA
P106,right,22,exhale,correct,0.576859100001457
P106,up,23,exhale,correct,0.630587800002104
P106,up,24,inhale,correct,0.583302800001547
P106,down,25,exhale,correct,0.613228599999275
P106,left,26,inhale,correct,0.429893500000617
P106,right,27,exhale,correct,0.712977800001681
P106,down,28,inhale,correct,0.532096800001455
P106,catch,29,exhale,correct,NA
P106,right,30,exhale,correct,0.442069199998514
P106,down,31,inhale,correct,0.568127599999571
P106,down,32,exhale,correct,0.549516300001414
P106,up,33,inhale,correct,0.480035599997791
P106,catch,34,exhale,correct,NA
P106,up,35,inhale,correct,0.402612699999736
P106,left,36,exhale,correct,0.456752099998994
P106,left,37,inhale,correct,0.494967200000247
P106,catch,38,exhale,correct,NA
P106,right,39,inhale,correct,0.550269499999558
P106,down,40,exhale,correct,0.822741799998767
P106,left,41,inhale,correct,0.571875300000102
P106,catch,42,exhale,correct,NA
P106,left,43,inhale,correct,0.748798699998588
P106,right,44,exhale,correct,0.766407499999332
P106,catch,45,inhale,correct,NA
P106,up,46,exhale,correct,0.76080279999951
P106,down,47,inhale,correct,0.648510300001362
P106,right,48,exhale,correct,0.436870899997302
P106,up,49,inhale,correct,0.427041199996893
P106,left,50,exhale,correct,0.435501200001454
P106,catch,51,inhale,correct,NA
P106,left,52,inhale,correct,0.569116500002565
P106,right,53,exhale,correct,0.585610199999792
P106,down,54,inhale,correct,0.686578599998029
P106,down,55,exhale,correct,0.703653599997779
P106,up,56,inhale,correct,0.482599800001481
P106,up,57,inhale,correct,0.554197900000872
P106,catch,58,exhale,correct,NA
P106,right,59,inhale,correct,0.509458100001211
P107,up,0,inhale,correct,0.461080400000355
P107,left,1,exhale,correct,0.411270000000513
P107,down,2,inhale,correct,0.441141600000265
P107,left,3,exhale,correct,0.414852599998994
P107,catch,4,inhale,correct,NA
P107,catch,5,exhale,correct,NA
P107,down,6,inhale,correct,0.422303599996667
P107,right,7,exhale,correct,0.425724699998682
P107,up,8,inhale,correct,0.443894199997885
P107,right,9,exhale,correct,0.445698299998185
P107,up,10,inhale,correct,0.489507599999342
P107,down,11,exhale,correct,0.444900500002404
P107,right,12,inhale,correct,0.37034230000063
P107,right,13,exhale,correct,0.504483200002142
P107,left,14,inhale,correct,0.500967100000707
P107,up,15,exhale,correct,0.456021599999076
P107,catch,16,inhale,correct,NA
P107,left,17,exhale,correct,0.450876399998378
P107,down,18,inhale,correct,0.419364199999109
P107,catch,19,exhale,correct,NA
P107,catch,20,inhale,correct,NA
P107,left,21,exhale,correct,0.461800599998242
P107,right,22,inhale,correct,0.431543700000475
P107,catch,23,exhale,correct,NA
P107,right,24,inhale,correct,0.426926000000094
P107,up,25,exhale,correct,0.501506299999164
P107,down,26,inhale,correct,0.377518500001315
P107,up,27,exhale,correct,0.379331000000093
P107,left,28,inhale,correct,0.374400100001367
P107,down,29,exhale,correct,0.459355799997866
P107,down,30,inhale,correct,0.408027500001481
P107,left,31,exhale,correct,0.447334100001171
P107,catch,32,inhale,correct,NA
P107,right,33,exhale,correct,0.441276900000958
P107,left,34,inhale,correct,0.375755199998821
P107,up,35,exhale,correct,0.444583799999236
P107,catch,36,exhale,correct,NA
P107,up,37,inhale,correct,0.418097699999635
P107,right,38,exhale,correct,0.411931900001946
P107,down,39,inhale,correct,0.431439800002408
P107,right,40,exhale,correct,0.461316600001737
P107,left,41,inhale,correct,0.37340179999955603
P107,catch,42,exhale,correct,NA
P107,down,43,inhale,correct,0.395942799998011
P107,right,44,exhale,correct,0.449415600000066
P107,catch,45,inhale,correct,NA
P107,down,46,exhale,correct,0.475844100001268
P107,left,47,inhale,correct,0.429492300001584
P107,up,48,exhale,correct,0.360225899999932
P107,up,49,inhale,correct,0.303818599997612
P107,down,50,exhale,incorrect,NA
P107,left,51,inhale,correct,0.42390350000278
P107,catch,52,exhale,correct,NA
P107,right,53,inhale,correct,0.379610300002241
P107,left,54,exhale,correct,0.407938399999694
P107,right,55,inhale,correct,0.382802200001606
P107,up,56,exhale,correct,0.490031799999997
P107,down,57,inhale,correct,0.453497099999367
P107,catch,58,exhale,correct,NA
P107,up,59,inhale,correct,0.355980099997396
P107,right,0,inhale,correct,0.401404499996715
P107,down,1,exhale,correct,0.400387400000909
P107,down,2,inhale,correct,0.376458099999581
P107,catch,3,exhale,correct,NA
P107,up,4,inhale,correct,0.41485560000001
P107,left,5,exhale,correct,0.424580100003368
P107,catch,6,inhale,correct,NA
P107,left,7,exhale,correct,0.397914799999853
P107,up,8,inhale,correct,0.37536800000089
P107,right,9,exhale,correct,0.986053000000538
P107,catch,10,inhale,correct,NA
P107,up,11,exhale,correct,0.461799099997734
P107,left,12,inhale,correct,0.445414400001027
P107,down,13,exhale,correct,0.414543400002003
P107,up,14,inhale,correct,0.354436499997973
P107,down,15,exhale,correct,0.528916299997945
P107,right,16,inhale,correct,0.387996299999941
P107,right,17,exhale,correct,0.334252399999968
P107,left,18,inhale,correct,0.329816099998425
P107,catch,19,exhale,correct,NA
P107,down,20,inhale,correct,0.377386500000284
P107,left,21,exhale,correct,0.385095199999341
P107,up,22,inhale,correct,0.344179100000474
P107,right,23,exhale,correct,0.44571299999734
P107,catch,24,inhale,correct,NA
P107,up,25,exhale,correct,0.379685200001404
P107,right,26,inhale,correct,0.427232999998523
P107,down,27,exhale,correct,0.435176899998623
P107,catch,28,inhale,correct,NA
P107,left,29,exhale,correct,0.541179799998645
P107,down,30,inhale,correct,0.443750200000068
P107,left,31,exhale,correct,0.397938499998418
P107,right,32,inhale,correct,0.320056699998531
P107,down,33,exhale,correct,0.338157799997134
P107,up,34,inhale,correct,0.312299500001245
P107,catch,35,inhale,incorrect,1.32874739999897
P107,left,36,exhale,correct,0.390216300002066
P107,up,37,inhale,correct,0.418219399998634
P107,catch,38,exhale,correct,NA
P107,right,39,inhale,correct,0.49555429999964
P107,down,40,exhale,correct,0.402280499998596
P107,up,41,inhale,correct,0.466418399999384
P107,right,42,exhale,correct,0.412550499997451
P107,up,43,inhale,correct,0.511647300001641
P107,left,44,exhale,correct,0.349347200000921
P107,left,45,inhale,correct,0.535859700001311
P107,catch,46,exhale,correct,NA
P107,down,47,inhale,correct,0.424810300002719
P107,right,48,exhale,correct,0.540878799998609
P107,catch,49,inhale,correct,NA
P107,left,50,exhale,correct,0.385097900001711
P107,right,51,inhale,correct,0.428073000002769
P107,left,52,exhale,correct,0.399500100000296
P107,down,53,inhale,correct,0.396255999999994
P107,up,54,exhale,correct,0.379317599999922
P107,catch,55,inhale,correct,NA
P107,right,56,exhale,correct,0.393294500001502
P107,catch,57,inhale,correct,NA
P107,up,58,exhale,correct,0.416000000001077
P107,down,59,inhale,correct,0.409072700000252
P108,left,0,exhale,correct,0.400560300000507
P108,right,1,inhale,correct,0.294981299997744
P108,up,2,exhale,correct,0.372063599999819
P108,right,3,inhale,correct,0.255698399996618
P108,up,4,exhale,correct,0.274826099997881
P108,catch,5,inhale,correct,NA
P108,left,6,exhale,correct,0.312838399997418
P108,catch,7,inhale,correct,NA
P108,down,8,exhale,correct,0.265090200002305
P108,down,9,inhale,correct,0.309416000000056
P108,left,10,exhale,correct,0.378793599997152
P108,right,11,inhale,correct,0.310878099997353
P108,catch,12,exhale,correct,NA
P108,catch,13,inhale,correct,NA
P108,down,14,exhale,correct,0.388863700001821
P108,right,15,inhale,correct,0.307123599999613
P108,left,16,exhale,correct,0.281879800000752
P108,up,17,inhale,correct,0.339137900002243
P108,up,18,inhale,correct,0.272022700002708
P108,down,19,exhale,correct,0.401391799998237
P108,up,20,inhale,correct,0.332077099999879
P108,down,21,exhale,correct,0.321969099997659
P108,down,22,inhale,correct,0.302201700000296
P108,catch,23,exhale,correct,NA
P108,left,24,inhale,correct,0.324293500001659
P108,right,25,exhale,correct,0.340720399999555
P108,left,26,inhale,correct,0.359118299998954
P108,up,27,exhale,correct,0.334129299997585
P108,right,28,inhale,correct,0.322139100000641
P108,catch,29,exhale,correct,NA
P108,catch,30,exhale,correct,NA
P108,down,31,inhale,correct,0.307927599998948
P108,right,32,exhale,correct,0.318469800000457
P108,up,33,inhale,correct,0.337254099998972
P108,down,34,exhale,correct,0.594866100000218
P108,left,35,inhale,correct,0.329979300000559
P108,left,36,exhale,correct,0.388233699999546
P108,right,37,inhale,correct,0.296865299998899
P108,catch,38,exhale,correct,NA
P108,up,39,inhale,correct,0.348457400003099
P108,left,40,exhale,correct,0.401342100001784
P108,down,41,inhale,correct,0.352400699997816
P108,down,42,exhale,correct,0.303213899998809
P108,right,43,inhale,correct,0.319210000001476
P108,catch,44,exhale,correct,NA
P108,catch,45,exhale,correct,NA
P108,left,46,exhale,correct,0.39863559999867
P108,up,47,inhale,correct,0.397941600000195
P108,up,48,exhale,correct,0.367848799996864
P108,right,49,inhale,correct,0.347181900000578
P108,right,50,exhale,correct,0.341146099999605
P108,up,51,inhale,correct,0.343748200000846
P108,left,52,exhale,correct,0.36962670000139
P108,catch,53,inhale,correct,NA
P108,down,54,exhale,correct,0.370697099999234
P108,left,55,inhale,correct,0.35616790000131
P108,catch,56,exhale,correct,NA
P108,up,57,inhale,correct,0.401263200001267
P108,right,58,exhale,correct,0.363654000000679
P108,down,59,inhale,correct,0.41191329999856
P108,catch,0,exhale,correct,NA
P108,right,1,inhale,correct,0.355974300000526
P108,down,2,exhale,correct,0.436481299999286
P108,down,3,inhale,correct,0.422005000000354
P108,right,4,exhale,correct,0.378077199999098
P108,up,5,inhale,correct,0.33220170000277
P108,left,6,exhale,correct,0.348173300000781
P108,catch,7,inhale,correct,NA
P108,left,8,exhale,correct,0.279885100000683
P108,up,9,inhale,correct,0.426358299999265
P108,catch,10,exhale,correct,NA
P108,catch,11,inhale,correct,NA
P108,left,12,exhale,correct,0.326519800000824
P108,right,13,inhale,correct,0.306599400002597
P108,right,14,exhale,correct,0.273944600001414
P108,down,15,inhale,correct,0.317086099999869
P108,left,16,exhale,correct,0.32742750000034
P108,up,17,inhale,correct,0.303945600000588
P108,up,18,exhale,correct,0.352354300001025
P108,down,19,inhale,correct,0.346005200000945
P108,down,20,exhale,correct,0.304707399998733
P108,left,21,inhale,correct,0.34664630000043
P108,catch,22,exhale,correct,NA
P108,left,23,inhale,correct,0.35803599999781
P108,right,24,exhale,correct,0.320423400000436
P108,up,25,inhale,correct,0.307182299999113
P108,catch,26,exhale,correct,NA
P108,right,27,inhale,correct,0.351368599996931
P108,down,28,exhale,correct,0.534368799999356
P108,up,29,inhale,correct,0.308537999997498
P108,left,30,exhale,correct,0.281517700001132
P108,catch,31,inhale,correct,NA
P108,right,32,exhale,correct,0.335146500001429
P108,up,33,inhale,correct,0.28767919999882
P108,down,34,exhale,correct,0.337345500000083
P108,up,35,inhale,correct,0.288406600000599
P108,right,36,exhale,correct,0.289923000000272
P108,catch,37,inhale,correct,NA
P108,left,38,exhale,correct,0.295971100000315
P108,down,39,inhale,correct,0.343137100000604
P108,catch,40,exhale,correct,NA
P108,left,41,inhale,correct,0.39387269999861
P108,right,42,exhale,correct,0.384264799999073
P108,left,43,inhale,correct,0.35868180000034
P108,up,44,exhale,correct,0.327652600000874
P108,down,45,inhale,correct,0.350329199998669
P108,down,46,exhale,correct,0.326462699998956
P108,up,47,inhale,correct,0.312267199999042
P108,right,48,exhale,correct,0.317447500001435
P108,catch,49,inhale,correct,NA
P108,left,50,exhale,correct,0.411716099999467
P108,catch,51,inhale,correct,NA
P108,down,52,exhale,correct,0.288134500002343
P108,left,53,inhale,correct,0.336515799997869
P108,up,54,exhale,correct,0.28481820000161
P108,right,55,inhale,correct,0.453192400000262
P108,down,56,exhale,correct,0.375992799999949
P108,up,57,inhale,correct,0.300787500000297
P108,right,58,exhale,correct,0.266407600000093
P108,catch,59,inhale,correct,NA
P109,right,0,inhale,correct,0.311680700000579
P109,catch,1,exhale,correct,NA
P109,left,2,inhale,correct,0.464410699998552
P109,up,3,exhale,correct,0.983158499999263
P109,catch,4,inhale,correct,NA
P109,right,5,exhale,correct,0.574679900000774
P109,down,6,inhale,correct,0.421246499998233
P109,left,7,exhale,correct,0.474372399999993
P109,down,8,inhale,correct,0.488903400000709
P109,up,9,exhale,correct,0.67471149999983
P109,up,10,inhale,correct,0.415447499999573
P109,down,11,exhale,correct,0.361933600001066
P109,catch,12,inhale,correct,NA
P109,right,13,exhale,correct,0.476484899998468
P109,left,14,inhale,correct,0.51450449999902
P109,up,15,exhale,correct,0.283843699999125
P109,left,16,inhale,correct,0.391419100000348
P109,down,17,exhale,correct,0.46094710000034
P109,right,18,inhale,correct,0.542366700003186
P109,catch,19,exhale,correct,NA
P109,catch,20,inhale,correct,NA
P109,catch,21,exhale,correct,NA
P109,right,22,inhale,correct,0.466753699998662
P109,down,23,exhale,correct,0.594065400000545
P109,down,24,inhale,correct,0.574578300002031
P109,right,25,exhale,correct,0.410839699998178
P109,up,26,inhale,correct,0.427721800002473
P109,left,27,exhale,correct,0.456475800001499
P109,up,28,inhale,correct,0.296226900001784
P109,left,29,exhale,correct,0.383805299999949
P109,up,30,inhale,correct,0.334098999999696
P109,down,31,exhale,correct,0.380733199999668
P109,left,32,inhale,correct,0.481805799998256
P109,up,33,exhale,correct,0.431131899997126
P109,right,34,inhale,correct,0.377802400002111
P109,down,35,exhale,correct,0.437352099997952
P109,right,36,inhale,correct,0.369265399996948
P109,catch,37,exhale,correct,NA
P109,catch,38,inhale,correct,NA
P109,left,39,exhale,correct,0.339557100000093
P109,left,40,inhale,correct,0.416252700000769
P109,left,41,exhale,correct,0.543251700000837
P109,up,42,inhale,correct,0.455075999998371
P109,right,43,exhale,correct,0.352803599998879
P109,down,44,inhale,correct,0.431521400001657
P109,up,45,exhale,correct,0.338188100002299
P109,catch,46,inhale,correct,NA
P109,right,47,exhale,correct,0.511648600000626
P109,down,48,inhale,correct,0.450069099999382
P109,catch,49,exhale,correct,NA
P109,left,50,inhale,correct,0.349317499996687
P109,catch,51,exhale,correct,NA
P109,catch,52,inhale,correct,NA
P109,left,53,exhale,correct,0.331980599999952
P109,up,54,inhale,correct,0.39167660000021
P109,down,55,exhale,correct,0.377600199997687
P109,up,56,inhale,correct,0.42401549999704
P109,right,57,exhale,correct,0.378729100000783
P109,down,58,inhale,correct,0.457793600002333
P109,right,59,exhale,correct,0.422494900001766
P109,up,0,inhale,correct,0.393889999999374
P109,down,1,exhale,correct,0.476117999998678
P109,catch,2,inhale,correct,NA
P109,right,3,inhale,correct,0.486623000000691
P109,left,4,exhale,correct,0.39793699999791
P109,left,5,inhale,correct,0.342183399996429
P109,up,6,exhale,correct,0.451113499999337
P109,down,7,inhale,correct,0.444548999999824
P109,catch,8,exhale,correct,NA
P109,right,9,inhale,correct,0.389034600000741
P109,up,10,exhale,correct,0.417882699999609
P109,down,11,inhale,correct,0.434641900003044
P109,catch,12,exhale,correct,NA
P109,left,13,inhale,correct,0.495971200001804
P109,catch,14,exhale,correct,NA
P109,right,15,inhale,correct,0.460408099999768
P109,right,16,exhale,correct,0.375399000000471
P109,left,17,inhale,correct,0.405723100000614
P109,up,18,exhale,correct,0.38851749999958
P109,down,19,inhale,correct,0.358095899999171
P109,left,20,exhale,correct,0.398467700000765
P109,up,21,inhale,correct,0.473376999998436
P109,down,22,exhale,correct,0.490842499999417
P109,left,23,inhale,correct,0.46761669999978
P109,right,24,inhale,correct,0.382921499996883
P109,up,25,exhale,correct,0.414574000002176
P109,down,26,inhale,correct,0.43873529999837
P109,catch,27,exhale,correct,NA
P109,catch,28,inhale,correct,NA
P109,right,29,exhale,correct,0.352300499998819
P109,up,30,inhale,correct,0.455211200001941
P109,right,31,exhale,correct,0.564393000000564
P109,down,32,inhale,correct,0.454303899998195
P109,up,33,exhale,correct,0.463394899998093
P109,left,34,inhale,correct,0.395711299999675
P109,down,35,exhale,correct,0.428242900001351
P109,catch,36,inhale,correct,NA
P109,right,37,exhale,correct,0.329888199998095
P109,left,38,inhale,correct,0.450877100000071
P109,catch,39,exhale,correct,NA
P109,up,40,inhale,correct,0.295873799997935
P109,left,41,exhale,correct,0.451783500000602
P109,up,42,inhale,correct,0.432770899999014
P109,down,43,inhale,correct,0.459888099998352
P109,left,44,exhale,correct,0.455958599999576
P109,down,45,inhale,correct,0.547974100001738
P109,right,46,inhale,correct,0.524090800001431
P109,catch,47,exhale,correct,NA
P109,catch,48,inhale,correct,NA
P109,right,49,inhale,correct,0.41058780000094
P109,down,50,exhale,correct,0.455608799999027
P109,up,51,exhale,correct,0.460940700002539
P109,left,52,inhale,correct,0.39867249999952
P109,catch,53,inhale,correct,NA
P109,up,54,inhale,correct,0.450986700001522
P109,left,55,exhale,correct,0.482357500000944
P109,right,56,inhale,correct,0.339816700001393
P109,right,57,exhale,correct,0.531866600002104
P109,catch,58,inhale,correct,NA
P109,down,59,exhale,correct,0.418372799998906
P112,down,0,inhale,incorrect,NA
P112,right,1,inhale,correct,0.513104999999996
P112,up,2,exhale,incorrect,NA
P112,up,3,inhale,incorrect,NA
P112,down,4,inhale,incorrect,NA
P112,left,5,inhale,correct,0.389774600000237
P112,left,6,exhale,correct,0.448035299999901
P112,catch,7,inhale,correct,NA
P112,down,8,exhale,incorrect,NA
P112,right,9,inhale,correct,0.406762500000696
P112,left,10,exhale,correct,0.674692000000505
P112,right,11,inhale,correct,0.41315030000078
P112,catch,12,exhale,correct,NA
P112,up,13,exhale,incorrect,NA
P112,catch,14,inhale,correct,NA
P112,down,15,exhale,incorrect,NA
P112,left,16,inhale,correct,0.507659500000955
P112,right,17,exhale,correct,0.595310300001074
P112,down,18,inhale,incorrect,NA
P112,catch,19,exhale,correct,NA
P112,right,20,exhale,correct,0.347568199998932
P112,left,21,inhale,correct,0.47182359999897
P112,right,22,exhale,correct,0.404882099999668
P112,up,23,inhale,incorrect,NA
P112,right,24,exhale,correct,0.469256200000018
P112,up,25,inhale,incorrect,NA
P112,catch,26,exhale,correct,NA
P112,catch,27,inhale,correct,NA
P112,left,28,exhale,correct,0.377561699999205
P112,up,29,inhale,incorrect,NA
P112,catch,30,exhale,correct,NA
P112,up,31,inhale,incorrect,NA
P112,up,32,exhale,incorrect,NA
P112,catch,33,exhale,correct,NA
P112,left,34,inhale,correct,0.350384100000156
P112,down,35,exhale,incorrect,NA
P112,down,36,inhale,incorrect,NA
P112,catch,37,inhale,correct,NA
P112,right,38,inhale,correct,0.450537200000326
P112,left,39,exhale,correct,0.755336099999113
P112,up,40,inhale,incorrect,NA
P112,down,41,exhale,incorrect,NA
P112,up,42,exhale,incorrect,NA
P112,catch,43,exhale,correct,NA
P112,down,44,exhale,incorrect,NA
P112,right,45,exhale,correct,0.521305000000211
P112,left,46,inhale,correct,0.384912900000927
P112,down,47,exhale,correct,0.431476900001144
P112,left,48,inhale,correct,0.434611000000587
P112,left,49,exhale,correct,0.469220799999675
P112,right,50,inhale,correct,0.492563100000552
P112,up,51,exhale,incorrect,NA
P112,up,52,exhale,incorrect,NA
P112,right,53,inhale,correct,0.544411300001229
P112,down,54,inhale,incorrect,NA
P112,catch,55,exhale,correct,NA
P112,up,56,exhale,incorrect,NA
P112,right,57,exhale,correct,0.425870600000053
P112,down,58,inhale,incorrect,NA
P112,down,59,inhale,incorrect,NA
P112,right,0,exhale,correct,0.603544100000363
P112,down,1,inhale,correct,0.429264800000965
P112,left,2,exhale,correct,0.416475500000161
P112,up,3,inhale,incorrect,NA
P112,right,4,exhale,correct,0.365251900000658
P112,left,5,inhale,correct,0.347043399999166
P112,down,6,exhale,incorrect,NA
P112,right,7,exhale,correct,0.444000599998617
P112,up,8,inhale,incorrect,NA
P112,catch,9,exhale,correct,NA
P112,up,10,inhale,incorrect,NA
P112,right,11,exhale,correct,0.620039600000382
P112,catch,12,inhale,correct,NA
P112,down,13,exhale,correct,0.350965300000098
P112,up,14,inhale,incorrect,NA
P112,left,15,exhale,correct,0.447616199999175
P112,up,16,exhale,incorrect,NA
P112,up,17,inhale,incorrect,NA
P112,left,18,inhale,correct,0.647821099999419
P112,left,19,inhale,correct,0.457264300001043
P112,catch,20,exhale,correct,NA
P112,left,21,inhale,correct,0.385342699999455
P112,right,22,exhale,correct,0.390487700000449
P112,up,23,inhale,incorrect,NA
P112,down,24,inhale,incorrect,NA
P112,catch,25,exhale,correct,NA
P112,right,26,inhale,correct,0.541993200000434
P112,up,27,exhale,incorrect,NA
P112,right,28,exhale,correct,0.484245499999815
P112,catch,29,inhale,correct,NA
P112,left,30,exhale,correct,0.438240100000257
P112,up,31,inhale,incorrect,NA
P112,catch,32,exhale,correct,NA
P112,down,33,inhale,incorrect,NA
P112,catch,34,exhale,correct,NA
P112,left,35,inhale,correct,0.534631000000445
P112,up,36,exhale,incorrect,NA
P112,catch,37,inhale,correct,NA
P112,catch,38,inhale,correct,NA
P112,down,39,exhale,incorrect,NA
P112,left,40,inhale,correct,0.455605600000126
P112,left,41,exhale,correct,0.435366100000465
P112,catch,42,inhale,correct,NA
P112,left,43,exhale,correct,0.62790589999895
P112,down,44,inhale,incorrect,NA
P112,catch,45,exhale,correct,NA
P112,right,46,inhale,correct,0.471888399999443
P112,left,47,exhale,correct,0.415286400000696
P112,up,48,exhale,incorrect,NA
P112,down,49,exhale,correct,0.683656100000007
P112,right,50,inhale,correct,0.407565400000749
P112,right,51,exhale,correct,0.52078149999943
P112,catch,52,inhale,correct,NA
P112,down,53,exhale,incorrect,NA
P112,catch,54,inhale,correct,NA
P112,right,55,exhale,correct,0.688273100000515
P112,left,56,inhale,correct,0.421121999999741
P112,right,57,exhale,correct,0.487372600000526
P112,down,58,inhale,incorrect,NA
P112,down,59,exhale,incorrect,NA
P113,down,0,inhale,correct,0.527271699999801
P113,right,1,exhale,correct,0.420405300000311
P113,up,2,inhale,correct,0.325408299999253
P113,up,3,exhale,correct,0.354994799999986
P113,down,4,inhale,incorrect,NA
P113,left,5,inhale,correct,0.264726100000189
P113,left,6,exhale,correct,0.355241900000692
P113,catch,7,inhale,incorrect,0.0126325999999608
P113,down,8,exhale,correct,0.417397899999742
P113,right,9,inhale,correct,0.384224999999788
P113,left,10,exhale,correct,0.390551100000266
P113,right,11,inhale,correct,0.302485700000034
P113,catch,12,exhale,correct,NA
P113,up,13,exhale,correct,0.352553699999589
P113,catch,14,inhale,correct,NA
P113,down,15,inhale,correct,0.410870200000318
P113,left,16,exhale,correct,0.442044899999928
P113,right,17,inhale,correct,0.364406699999563
P113,down,18,exhale,correct,0.455079999999725
P113,catch,19,inhale,correct,NA
P113,right,20,inhale,correct,0.436724399999548
P113,left,21,exhale,correct,0.335378499999933
P113,right,22,inhale,correct,0.341352200000074
P113,up,23,exhale,correct,0.419017100000019
P113,right,24,inhale,correct,0.331923699999606
P113,up,25,exhale,correct,0.371272299999873
P113,catch,26,inhale,correct,NA
P113,catch,27,inhale,correct,NA
P113,left,28,inhale,correct,0.472179200000028
P113,up,29,exhale,correct,0.352152800000113
P113,catch,30,inhale,correct,NA
P113,up,31,inhale,correct,0.313582499999939
P113,up,32,exhale,correct,0.358249999999316
P113,catch,33,inhale,correct,NA
P113,left,34,inhale,correct,0.381249400000343
P113,down,35,exhale,correct,0.357916799999657
P113,down,36,inhale,correct,0.320105400000102
P113,catch,37,exhale,correct,NA
P113,right,38,exhale,correct,0.419688699999824
P113,left,39,inhale,correct,0.335285699999986
P113,up,40,exhale,correct,0.307012600000235
P113,down,41,inhale,correct,0.349342399999841
P113,up,42,exhale,correct,0.418224499999269
P113,catch,43,inhale,correct,NA
P113,down,44,inhale,correct,0.344289900000149
P113,right,45,exhale,correct,0.433851499999946
P113,left,46,inhale,correct,0.287054600000374
P113,down,47,exhale,correct,0.432769899999585
P113,left,48,inhale,correct,0.308229100000062
P113,left,49,exhale,correct,0.394381000000067
P113,right,50,inhale,correct,0.273939299999256
P113,up,51,exhale,correct,0.407147500000065
P113,up,52,inhale,correct,0.327870799999801
P113,right,53,exhale,correct,0.639866900000015
P113,down,54,inhale,correct,0.360460299999431
P113,catch,55,exhale,correct,NA
P113,up,56,exhale,correct,0.378442900000664
P113,right,57,inhale,correct,0.305435100000068
P113,down,58,exhale,correct,0.394447000000582
P113,down,59,inhale,correct,0.454748099999961
P113,right,0,exhale,correct,0.366441000000123
P113,down,1,inhale,correct,0.382147000000259
P113,left,2,exhale,correct,0.328375600000072
P113,up,3,inhale,correct,0.322484799999984
P113,right,4,exhale,incorrect,NA
P113,left,5,exhale,correct,0.298138799999833
P113,down,6,inhale,correct,0.280636399999821
P113,right,7,exhale,correct,0.33485120000023
P113,up,8,inhale,correct,0.248739999999998
P113,catch,9,exhale,correct,NA
P113,up,10,exhale,correct,0.329559300000255
P113,right,11,inhale,correct,0.369666999999936
P113,catch,12,exhale,correct,NA
P113,down,13,exhale,correct,0.337538799999493
P113,up,14,inhale,correct,0.398932199999763
P113,left,15,exhale,correct,0.429500399999597
P113,up,16,inhale,correct,0.333744399999887
P113,up,17,exhale,correct,0.313623800000641
P113,left,18,inhale,correct,0.367863999999827
P113,left,19,exhale,correct,0.380734200000006
P113,catch,20,inhale,correct,NA
P113,left,21,inhale,correct,0.3835425999996
P113,right,22,exhale,correct,0.395240099999683
P113,up,23,inhale,correct,0.355602600000566
P113,down,24,exhale,correct,0.453646699999808
P113,catch,25,inhale,correct,NA
P113,right,26,inhale,correct,0.271456400000716
P113,up,27,exhale,correct,0.359225100000003
P113,right,28,inhale,correct,0.454674999999952
P113,catch,29,exhale,correct,NA
P113,left,30,exhale,correct,0.317959099999825
P113,up,31,inhale,correct,0.324831699999777
P113,catch,32,exhale,correct,NA
P113,down,33,exhale,correct,0.302937200000088
P113,catch,34,inhale,correct,NA
P113,left,35,inhale,correct,0.404123500000424
P113,up,36,exhale,correct,0.391640200000438
P113,catch,37,inhale,correct,NA
P113,catch,38,inhale,correct,NA
P113,down,39,inhale,correct,0.335872399999971
P113,left,40,exhale,correct,0.428692500000579
P113,left,41,inhale,correct,0.38686190000044
P113,catch,42,exhale,correct,NA
P113,left,43,exhale,correct,0.405377200000657
P113,down,44,inhale,correct,0.35113309999997
P113,catch,45,exhale,correct,NA
P113,right,46,exhale,correct,0.367658200000733
P113,left,47,inhale,correct,0.325680700000703
P113,up,48,exhale,correct,0.444104799999877
P113,down,49,inhale,correct,0.322168099999544
P113,right,50,exhale,correct,0.364923299999646
P113,right,51,inhale,correct,0.337525199999618
P113,catch,52,exhale,correct,NA
P113,down,53,exhale,correct,0.40139309999995
P113,catch,54,inhale,correct,NA
P113,right,55,inhale,correct,0.359339699999509
P113,left,56,exhale,correct,0.356778499999564
P113,right,57,inhale,correct,0.44427160000032
P113,down,58,exhale,correct,0.372881100000086
P113,down,59,inhale,correct,0.366185299999415
P114,down,0,inhale,correct,0.336458900000025
P114,right,1,exhale,correct,0.334459899999956
P114,up,2,inhale,correct,0.479813700000022
P114,up,3,exhale,correct,0.518261299999949
P114,down,4,inhale,correct,0.267255900000009
P114,left,5,exhale,correct,0.405840099999978
P114,left,6,inhale,correct,0.289388900000063
P114,catch,7,exhale,correct,NA
P114,down,8,exhale,correct,0.528263899999956
P114,right,9,inhale,correct,0.374684499999944
P114,left,10,exhale,correct,0.598196799999982
P114,right,11,inhale,correct,0.494215100000019
P114,catch,12,exhale,correct,NA
P114,up,13,inhale,correct,0.26556549999998
P114,catch,14,exhale,correct,NA
P114,down,15,inhale,correct,0.310129599999982
P114,left,16,exhale,correct,0.522704199999907
P114,right,17,inhale,correct,0.250233299999991
P114,down,18,exhale,correct,0.491106800000011
P114,catch,19,inhale,correct,NA
P114,right,20,exhale,correct,0.337588899999901
P114,left,21,inhale,correct,0.35807090000003
P114,right,22,exhale,correct,0.532332900000029
P114,up,23,inhale,correct,0.340362299999924
P114,right,24,inhale,correct,0.322311300000024
P114,up,25,exhale,correct,0.36206900000002
P114,catch,26,inhale,correct,NA
P114,catch,27,exhale,correct,NA
P114,left,28,inhale,correct,0.295808800000032
P114,up,29,exhale,correct,0.393418900000029
P114,catch,30,inhale,correct,NA
P114,up,31,exhale,correct,0.354570200000012
P114,up,32,inhale,correct,0.35255159999997
P114,catch,33,exhale,correct,NA
P114,left,34,inhale,correct,0.370871800000032
P114,down,35,exhale,correct,0.423444200000063
P114,down,36,inhale,correct,0.475665899999967
P114,catch,37,exhale,correct,NA
P114,right,38,exhale,correct,0.552859900000044
P114,left,39,inhale,correct,0.576374800000053
P114,up,40,exhale,correct,0.304555800000003
P114,down,41,inhale,correct,0.295867299999941
P114,up,42,exhale,correct,0.444272000000069
P114,catch,43,inhale,correct,NA
P114,down,44,exhale,correct,0.258140700000013
P114,right,45,inhale,correct,0.326150199999915
P114,left,46,exhale,correct,0.268965999999978
P114,down,47,inhale,correct,0.458173199999919
P114,left,48,exhale,correct,0.274004300000001
P114,left,49,inhale,correct,0.459476300000006
P114,right,50,exhale,correct,0.373736399999984
P114,up,51,inhale,correct,0.324102899999957
P114,up,52,exhale,correct,0.247495500000014
P114,right,53,inhale,correct,0.36815009999998
P114,down,54,exhale,correct,0.275877100000002
P114,catch,55,inhale,correct,NA
P114,up,56,exhale,correct,0.274501900000018
P114,right,57,inhale,correct,0.334935800000039
P114,down,58,exhale,correct,0.272332300000016
P114,down,59,inhale,correct,0.33072279999999
P114,right,0,inhale,correct,0.371538399999963
P114,down,1,exhale,correct,0.430352999999968
P114,left,2,inhale,correct,0.306141499999967
P114,up,3,exhale,correct,0.359881799999926
P114,right,4,inhale,correct,0.425399900000002
P114,left,5,exhale,correct,0.351999400000068
P114,down,6,inhale,correct,0.292084599999953
P114,right,7,exhale,correct,0.450993199999971
P114,up,8,inhale,correct,0.27148360000001
P114,catch,9,exhale,correct,NA
P114,up,10,exhale,correct,0.528409199999942
P114,right,11,inhale,correct,0.304117700000006
P114,catch,12,exhale,correct,NA
P114,down,13,exhale,correct,0.45475870000007
P114,up,14,inhale,correct,0.3818397
P114,left,15,exhale,correct,0.314021600000046
P114,up,16,inhale,correct,0.282583899999963
P114,up,17,exhale,correct,0.290935799999943
P114,left,18,inhale,correct,0.268976900000098
P114,left,19,exhale,correct,0.326453300000026
P114,catch,20,inhale,correct,NA
P114,left,21,exhale,correct,0.333539500000029
P114,right,22,inhale,correct,0.355273400000101
P114,up,23,exhale,correct,0.402770700000019
P114,down,24,inhale,correct,0.460562100000061
P114,catch,25,exhale,correct,NA
P114,right,26,exhale,correct,0.457333400000039
P114,up,27,inhale,correct,0.338397100000066
P114,right,28,exhale,correct,0.328060899999969
P114,catch,29,inhale,correct,NA
P114,left,30,exhale,correct,0.356708099999992
P114,up,31,inhale,correct,0.551351400000044
P114,catch,32,exhale,correct,NA
P114,down,33,exhale,correct,0.596426799999904
P114,catch,34,inhale,correct,NA
P114,left,35,exhale,correct,0.318031299999916
P114,up,36,inhale,correct,0.321084499999984
P114,catch,37,exhale,correct,NA
P114,catch,38,inhale,correct,NA
P114,down,39,exhale,correct,0.381256500000063
P114,left,40,inhale,correct,0.341082700000015
P114,left,41,exhale,correct,0.48159540000006
P114,catch,42,inhale,correct,NA
P114,left,43,exhale,correct,0.389375299999983
P114,down,44,inhale,correct,0.357949099999928
P114,catch,45,exhale,correct,NA
P114,right,46,inhale,correct,0.41927649999991
P114,left,47,exhale,correct,0.603154300000028
P114,up,48,inhale,correct,0.321998099999973
P114,down,49,exhale,correct,0.266601100000003
P114,right,50,inhale,correct,0.2847352
P114,right,51,exhale,correct,0.29707899999994
P114,catch,52,inhale,correct,NA
P114,down,53,exhale,correct,0.332229200000029
P114,catch,54,inhale,correct,NA
P114,right,55,exhale,correct,0.406838599999901
P114,left,56,inhale,correct,0.606865900000003
P114,right,57,exhale,correct,0.478223500000013
P114,down,58,inhale,correct,0.311239200000045
P114,down,59,exhale,correct,0.301274100000001
P115,down,0,inhale,correct,0.416062099999635
P115,right,1,exhale,correct,0.268805900000189
P115,up,2,inhale,correct,0.366738000000169
P115,up,3,exhale,correct,0.390563899999961
P115,down,4,inhale,correct,0.264785800000027
P115,left,5,exhale,correct,0.243056999999681
P115,left,6,inhale,correct,0.284704000000147
P115,catch,7,exhale,correct,NA
P115,down,8,inhale,correct,0.30143790000011
P115,right,9,exhale,correct,0.323437500000182
P115,left,10,inhale,correct,0.391727400000036
P115,right,11,exhale,correct,0.332890499999849
P115,catch,12,inhale,correct,NA
P115,up,13,inhale,correct,0.341220700000122
P115,catch,14,exhale,correct,NA
P115,down,15,inhale,correct,0.451540099999875
P115,left,16,exhale,correct,0.27238030000035
P115,right,17,inhale,correct,0.276818999999705
P115,down,18,exhale,correct,0.360742100000152
P115,catch,19,inhale,correct,NA
P115,right,20,inhale,correct,0.386147199999868
P115,left,21,exhale,correct,0.324811299999965
P115,right,22,inhale,correct,0.334912599999825
P115,up,23,exhale,correct,0.333436699999766
P115,right,24,inhale,correct,0.296583299999838
P115,up,25,exhale,correct,0.345798900000318
P115,catch,26,inhale,correct,NA
P115,catch,27,inhale,correct,NA
P115,left,28,inhale,correct,0.353696600000148
P115,up,29,exhale,correct,0.494809499999974
P115,catch,30,inhale,correct,NA
P115,up,31,inhale,correct,0.263450399999783
P115,up,32,exhale,correct,0.33893369999987
P115,catch,33,inhale,correct,NA
P115,left,34,inhale,correct,0.337920999999824
P115,down,35,exhale,correct,0.341518500000348
P115,down,36,inhale,correct,0.321729900000264
P115,catch,37,exhale,correct,NA
P115,right,38,exhale,correct,0.321556700000201
P115,left,39,inhale,correct,0.377526100000068
P115,up,40,exhale,correct,0.334946599999967
P115,down,41,inhale,correct,0.531034900000122
P115,up,42,exhale,correct,0.273758099999668
P115,catch,43,inhale,correct,NA
P115,down,44,inhale,correct,0.394934299999932
P115,right,45,exhale,correct,0.317471100000148
P115,left,46,inhale,correct,0.446849399999792
P115,down,47,exhale,correct,0.355123499999991
P115,left,48,inhale,correct,0.383013900000151
P115,left,49,exhale,correct,0.338861699999597
P115,right,50,inhale,correct,0.345931600000313
P115,up,51,exhale,correct,0.530355200000031
P115,up,52,inhale,correct,0.353538599999865
P115,right,53,exhale,correct,0.377347200000258
P115,down,54,inhale,correct,0.309240000000045
P115,catch,55,exhale,correct,NA
P115,up,56,exhale,correct,0.339732200000071
P115,right,57,inhale,correct,0.344406800000343
P115,down,58,exhale,correct,0.294021499999872
P115,down,59,inhale,correct,0.387979300000097
P115,right,0,inhale,correct,0.309375100000125
P115,down,1,exhale,correct,0.438757400000213
P115,left,2,inhale,correct,0.356417599999986
P115,up,3,exhale,correct,0.322100500000033
P115,right,4,inhale,correct,0.347899300000336
P115,left,5,exhale,correct,0.3752843999996
P115,down,6,inhale,correct,0.288485000000037
P115,right,7,exhale,correct,0.517610700000205
P115,up,8,inhale,correct,0.298639000000094
P115,catch,9,exhale,correct,NA
P115,up,10,inhale,correct,0.316225999999915
P115,right,11,exhale,correct,0.321608400000059
P115,catch,12,inhale,correct,NA
P115,down,13,inhale,correct,0.325961900000038
P115,up,14,exhale,correct,0.544206800000211
P115,left,15,inhale,correct,0.335781499999939
P115,up,16,exhale,correct,0.378679500000089
P115,up,17,inhale,correct,0.314607699999669
P115,left,18,exhale,correct,0.274583200000052
P115,left,19,inhale,correct,0.257487900000342
P115,catch,20,exhale,correct,NA
P115,left,21,inhale,correct,0.401765500000238
P115,right,22,exhale,correct,0.394371899999896
P115,up,23,inhale,correct,0.424870199999987
P115,down,24,exhale,correct,0.531602000000021
P115,catch,25,inhale,correct,NA
P115,right,26,exhale,correct,0.372096099999908
P115,up,27,inhale,correct,0.38007349999998
P115,right,28,exhale,correct,0.284588099999837
P115,catch,29,inhale,correct,NA
P115,left,30,inhale,correct,0.289205000000038
P115,up,31,exhale,correct,0.500060200000007
P115,catch,32,inhale,correct,NA
P115,down,33,inhale,correct,0.306521299999986
P115,catch,34,exhale,correct,NA
P115,left,35,inhale,correct,0.488720400000147
P115,up,36,exhale,correct,0.380350500000077
P115,catch,37,inhale,correct,NA
P115,catch,38,inhale,correct,NA
P115,down,39,exhale,correct,0.323766500000147
P115,left,40,inhale,correct,0.34152210000002
P115,left,41,exhale,correct,0.373309499999777
P115,catch,42,inhale,correct,NA
P115,left,43,inhale,correct,0.321082899999965
P115,down,44,exhale,correct,0.396864800000003
P115,catch,45,inhale,correct,NA
P115,right,46,inhale,correct,0.341486399999667
P115,left,47,exhale,correct,0.367916799999875
P115,up,48,inhale,correct,0.359915099999853
P115,down,49,exhale,correct,0.381719399999838
P115,right,50,inhale,correct,0.330417600000146
P115,right,51,exhale,correct,0.305417900000066
P115,catch,52,inhale,correct,NA
P115,down,53,inhale,correct,0.351330500000131
P115,catch,54,exhale,correct,NA
P115,right,55,inhale,correct,0.363633899999968
P115,left,56,exhale,correct,0.720208000000184
P115,right,57,inhale,correct,0.35074910000003
P115,down,58,exhale,correct,0.731395000000248
P115,down,59,inhale,correct,0.339151200000288
P117,down,0,inhale,correct,0.364076100000148
P117,right,1,exhale,correct,0.299783599999955
P117,up,2,inhale,correct,0.375223399999868
P117,up,3,exhale,correct,0.290489399999842
P117,down,4,inhale,correct,0.317572100000234
P117,left,5,exhale,correct,0.267126400000052
P117,left,6,inhale,correct,0.357834899999943
P117,catch,7,exhale,correct,NA
P117,down,8,inhale,correct,0.35887109999976
P117,right,9,exhale,correct,0.28109429999995
P117,left,10,inhale,correct,0.278306899999734
P117,right,11,exhale,correct,0.269533199999842
P117,catch,12,inhale,correct,NA
P117,up,13,exhale,correct,0.334725400000025
P117,catch,14,inhale,correct,NA
P117,down,15,exhale,correct,0.349580200000219
P117,left,16,inhale,correct,0.285827000000154
P117,right,17,exhale,correct,0.355531799999881
P117,down,18,inhale,correct,0.317135000000235
P117,catch,19,exhale,correct,NA
P117,right,20,inhale,correct,0.261061100000006
P117,left,21,exhale,correct,0.325332499999604
P117,right,22,inhale,correct,0.332371200000125
P117,up,23,exhale,correct,0.403251100000034
P117,right,24,inhale,correct,0.334398200000123
P117,up,25,exhale,correct,0.275654300000042
P117,catch,26,inhale,correct,NA
P117,catch,27,exhale,correct,NA
P117,left,28,inhale,correct,0.372536800000034
P117,up,29,exhale,correct,0.486992699999973
P117,catch,30,inhale,correct,NA
P117,up,31,exhale,correct,0.378005600000051
P117,up,32,inhale,correct,0.278127699999914
P117,catch,33,exhale,correct,NA
P117,left,34,inhale,correct,0.373713599999974
P117,down,35,exhale,correct,0.27764180000031
P117,down,36,inhale,correct,0.331839699999819
P117,catch,37,exhale,correct,NA
P117,right,38,inhale,correct,0.350540999999794
P117,left,39,exhale,correct,0.338695899999948
P117,up,40,inhale,correct,0.398701499999788
P117,down,41,exhale,correct,0.378717799999777
P117,up,42,inhale,correct,0.317246499999783
P117,catch,43,exhale,correct,NA
P117,down,44,inhale,correct,0.254634100000203
P117,right,45,exhale,correct,0.297093899999709
P117,left,46,inhale,correct,0.341228700000102
P117,down,47,exhale,correct,0.366575999999895
P117,left,48,inhale,correct,0.370253699999921
P117,left,49,exhale,correct,0.429295899999943
P117,right,50,inhale,correct,0.299306400000205
P117,up,51,exhale,correct,0.277471800000058
P117,up,52,inhale,correct,0.417911499999718
P117,right,53,exhale,correct,0.366803200000049
P117,down,54,inhale,correct,0.419897499999934
P117,catch,55,exhale,correct,NA
P117,up,56,inhale,correct,0.477227000000312
P117,right,57,exhale,correct,0.278201899999658
P117,down,58,inhale,correct,0.381908500000009
P117,down,59,exhale,correct,0.355431500000122
P117,right,0,inhale,correct,0.398081000000275
P117,down,1,exhale,correct,0.296971300000223
P117,left,2,inhale,correct,0.346634800000174
P117,up,3,exhale,correct,0.405078700000558
P117,right,4,inhale,correct,0.275248500000089
P117,left,5,exhale,correct,0.416963700000451
P117,down,6,inhale,correct,0.374086599999828
P117,right,7,exhale,correct,0.28240949999963
P117,up,8,inhale,correct,0.283663199999864
P117,catch,9,exhale,correct,NA
P117,up,10,inhale,correct,0.359905100000105
P117,right,11,exhale,correct,0.387139899999966
P117,catch,12,inhale,correct,NA
P117,down,13,exhale,correct,0.335764800000106
P117,up,14,inhale,correct,0.257147799999984
P117,left,15,exhale,correct,0.360425599999871
P117,up,16,inhale,correct,0.371092899999894
P117,up,17,exhale,correct,0.301094900000862
P117,left,18,inhale,correct,0.334781800000201
P117,left,19,exhale,correct,0.341647700000067
P117,catch,20,inhale,correct,NA
P117,left,21,exhale,correct,0.437790199999654
P117,right,22,inhale,correct,0.383783699999185
P117,up,23,exhale,correct,0.43787119999979
P117,down,24,inhale,correct,0.392666900000222
P117,catch,25,exhale,correct,NA
P117,right,26,inhale,correct,0.333156599999711
P117,up,27,exhale,correct,0.414600799999789
P117,right,28,inhale,correct,0.367488800000501
P117,catch,29,exhale,correct,NA
P117,left,30,inhale,correct,0.420637600000191
P117,up,31,exhale,correct,0.450739099999737
P117,catch,32,inhale,correct,NA
P117,down,33,exhale,correct,0.45152810000036
P117,catch,34,inhale,correct,NA
P117,left,35,exhale,correct,0.363336100000197
P117,up,36,inhale,correct,0.350277200000164
P117,catch,37,exhale,correct,NA
P117,catch,38,inhale,correct,NA
P117,down,39,exhale,correct,0.382343400000536
P117,left,40,inhale,correct,0.39048079999975
P117,left,41,exhale,correct,0.432594300000346
P117,catch,42,inhale,correct,NA
P117,left,43,exhale,correct,0.381214899999577
P117,down,44,inhale,correct,0.403511399999843
P117,catch,45,exhale,correct,NA
P117,right,46,inhale,correct,0.408849499999633
P117,left,47,exhale,correct,0.461556199999904
P117,up,48,inhale,correct,0.460737800000061
P117,down,49,exhale,correct,0.46060850000049
P117,right,50,inhale,correct,0.362145400000372
P117,right,51,exhale,correct,0.324270500000239
P117,catch,52,inhale,correct,NA
P117,down,53,exhale,correct,0.389760099999876
P117,catch,54,inhale,correct,NA
P117,right,55,exhale,correct,0.523983399999452
P117,left,56,inhale,correct,0.433440900000278
P117,right,57,exhale,correct,0.471521899999971
P117,down,58,inhale,correct,0.376040699999976
P117,down,59,exhale,correct,0.301710200000343
P118,down,0,inhale,correct,0.295400599999994
P118,right,1,exhale,correct,0.392726099999891
P118,up,2,inhale,correct,0.284495500000048
P118,up,3,exhale,correct,0.257543799999439
P118,down,4,inhale,correct,0.285034099999393
P118,left,5,exhale,correct,0.287050500000078
P118,left,6,inhale,correct,0.375091099999736
P118,catch,7,exhale,correct,NA
P118,down,8,inhale,correct,0.626965999999811
P118,right,9,exhale,correct,0.334916099999646
P118,left,10,inhale,correct,0.38763629999994
P118,right,11,exhale,correct,0.506219399999281
P118,catch,12,inhale,correct,NA
P118,up,13,exhale,correct,0.540215799999714
P118,catch,14,inhale,correct,NA
P118,down,15,exhale,correct,0.374465099999725
P118,left,16,inhale,correct,0.33443459999944
P118,right,17,exhale,correct,0.404796900000292
P118,down,18,inhale,correct,0.314339300000029
P118,catch,19,exhale,correct,NA
P118,right,20,inhale,correct,0.375964199999544
P118,left,21,exhale,correct,0.499000300000262
P118,right,22,inhale,correct,0.499687499999709
P118,up,23,exhale,correct,0.325210099999822
P118,right,24,inhale,correct,0.361880299999939
P118,up,25,exhale,correct,0.291527699999278
P118,catch,26,inhale,correct,NA
P118,catch,27,inhale,correct,NA
P118,left,28,exhale,correct,0.410664800000632
P118,up,29,inhale,correct,0.357800299999326
P118,catch,30,exhale,correct,NA
P118,up,31,inhale,correct,0.356671200000164
P118,up,32,exhale,correct,0.366076900000735
P118,catch,33,inhale,correct,NA
P118,left,34,exhale,correct,0.373700799999824
P118,down,35,inhale,correct,0.431322100000216
P118,down,36,exhale,correct,0.572131500000069
P118,catch,37,inhale,correct,NA
P118,right,38,exhale,correct,0.365389499999765
P118,left,39,inhale,correct,0.529692199999772
P118,up,40,exhale,correct,0.569315200000347
P118,down,41,inhale,correct,0.298964500000693
P118,up,42,exhale,correct,0.390110400000594
P118,catch,43,inhale,correct,NA
P118,down,44,exhale,correct,0.450974899999892
P118,right,45,inhale,correct,0.296424100000877
P118,left,46,exhale,correct,0.461027000000286
P118,down,47,inhale,correct,0.548621699999785
P118,left,48,exhale,correct,0.524255299999822
P118,left,49,inhale,correct,0.375308800000312
P118,right,50,exhale,correct,0.369562800000494
P118,up,51,inhale,correct,0.397227200000088
P118,up,52,exhale,correct,0.360139700000218
P118,right,53,inhale,correct,0.329776100000345
P118,down,54,exhale,correct,0.284756699999889
P118,catch,55,inhale,correct,NA
P118,up,56,inhale,correct,0.409729300000436
P118,right,57,exhale,correct,0.464959500000077
P118,down,58,inhale,correct,0.539703699999336
P118,down,59,exhale,correct,0.422114500000134
P118,right,0,inhale,correct,0.406513400000222
P118,down,1,exhale,correct,0.313420100000258
P118,left,2,inhale,correct,0.420213200000035
P118,up,3,exhale,correct,0.347559000000729
P118,right,4,inhale,correct,0.376758000000336
P118,left,5,exhale,correct,0.292201900000691
P118,down,6,inhale,correct,0.513436800000818
P118,right,7,exhale,correct,0.443825099999231
P118,up,8,inhale,correct,0.461056899999676
P118,catch,9,exhale,correct,NA
P118,up,10,inhale,correct,0.345191400000658
P118,right,11,exhale,correct,0.323856899999555
P118,catch,12,inhale,correct,NA
P118,down,13,inhale,correct,0.447238099999595
P118,up,14,exhale,correct,0.488556600000265
P118,left,15,inhale,correct,0.488993800000571
P118,up,16,exhale,correct,0.381313400000181
P118,up,17,inhale,correct,0.4749197000001
P118,left,18,exhale,correct,0.362448799999584
P118,left,19,inhale,correct,0.357742300000609
P118,catch,20,exhale,correct,NA
P118,left,21,inhale,correct,0.53124360000038
P118,right,22,exhale,correct,0.447090300000127
P118,up,23,inhale,correct,0.413372600000002
P118,down,24,exhale,correct,0.38900029999968
P118,catch,25,inhale,correct,NA
P118,right,26,exhale,correct,0.369296200000463
P118,up,27,inhale,correct,0.420344999999543
P118,right,28,exhale,correct,0.352013900000202
P118,catch,29,inhale,correct,NA
P118,left,30,exhale,correct,0.413974600000074
P118,up,31,inhale,correct,0.470555199999581
P118,catch,32,exhale,correct,NA
P118,down,33,inhale,correct,0.45779979999952
P118,catch,34,exhale,correct,NA
P118,left,35,inhale,correct,0.435942000000068
P118,up,36,exhale,correct,0.406380600000375
P118,catch,37,inhale,correct,NA
P118,catch,38,exhale,correct,NA
P118,down,39,inhale,correct,0.420153799999753
P118,left,40,exhale,correct,0.493970300000001
P118,left,41,inhale,correct,0.409880399999565
P118,catch,42,exhale,correct,NA
P118,left,43,inhale,correct,0.540880600000492
P118,down,44,exhale,correct,0.522189799999978
P118,catch,45,inhale,correct,NA
P118,right,46,exhale,correct,0.444946200000231
P118,left,47,inhale,correct,0.435491899999761
P118,up,48,exhale,correct,0.656561100000545
P118,down,49,inhale,correct,0.397741300000234
P118,right,50,exhale,correct,0.443738199999643
P118,right,51,inhale,correct,0.440760000000409
P118,catch,52,exhale,correct,NA
P118,down,53,inhale,correct,0.50531409999985
P118,catch,54,exhale,correct,NA
P118,right,55,inhale,correct,0.343791999999667
P118,left,56,exhale,correct,0.470470899999782
P118,right,57,inhale,correct,0.40017810000063
P118,down,58,exhale,correct,0.369978499999888
P118,down,59,inhale,correct,0.357445000000553
P119,down,0,inhale,correct,0.390047200000481
P119,right,1,exhale,correct,0.439930999998978
P119,up,2,inhale,correct,0.384499100000539
P119,up,3,exhale,correct,0.323204799999075
P119,down,4,inhale,correct,0.819524900000033
P119,left,5,exhale,correct,0.34250079999947
P119,left,6,inhale,correct,0.360864500000389
P119,catch,7,exhale,correct,NA
P119,down,8,inhale,correct,0.276109399999768
P119,right,9,exhale,correct,0.334754700001213
P119,left,10,inhale,correct,0.316043299999365
P119,right,11,exhale,correct,0.279710599999817
P119,catch,12,inhale,correct,NA
P119,up,13,exhale,correct,0.331949900000836
P119,catch,14,inhale,correct,NA
P119,down,15,inhale,correct,0.358924100000877
P119,left,16,exhale,correct,0.337198199998966
P119,right,17,inhale,correct,0.316437699999369
P119,down,18,exhale,correct,0.325563100001091
P119,catch,19,inhale,correct,NA
P119,right,20,inhale,correct,0.367432299999564
P119,left,21,exhale,correct,0.366319200000362
P119,right,22,inhale,correct,0.345781900001384
P119,up,23,exhale,correct,0.379878700001427
P119,right,24,inhale,correct,0.293053999999756
P119,up,25,exhale,correct,0.326692399999956
P119,catch,26,inhale,correct,NA
P119,catch,27,exhale,correct,NA
P119,left,28,inhale,correct,0.369897300000957
P119,up,29,exhale,correct,0.566133100001025
P119,catch,30,inhale,correct,NA
P119,up,31,exhale,correct,0.558078199999727
P119,up,32,inhale,correct,0.303298700000596
P119,catch,33,exhale,correct,NA
P119,left,34,inhale,correct,0.341584600000715
P119,down,35,exhale,correct,0.349031399999149
P119,down,36,inhale,correct,0.319578500000716
P119,catch,37,exhale,correct,NA
P119,right,38,inhale,correct,0.337258999999904
P119,left,39,exhale,correct,0.763543799999752
P119,up,40,inhale,correct,0.377000200000111
P119,down,41,exhale,correct,0.598599099999774
P119,up,42,inhale,correct,0.318068599999606
P119,catch,43,exhale,correct,NA
P119,down,44,inhale,correct,0.339306899999428
P119,right,45,exhale,correct,0.433955700000297
P119,left,46,inhale,correct,0.376673299999311
P119,down,47,exhale,correct,0.48858669999936
P119,left,48,inhale,correct,0.36217200000101
P119,left,49,exhale,correct,0.550520400000096
P119,right,50,inhale,correct,0.494190200000958
P119,up,51,exhale,correct,0.347685500000807
P119,up,52,inhale,correct,0.316117899999881
P119,right,53,exhale,correct,0.337581400001
P119,down,54,inhale,correct,0.349691999999777
P119,catch,55,exhale,correct,NA
P119,up,56,inhale,correct,0.317989600000146
P119,right,57,exhale,correct,0.571196499999132
P119,down,58,inhale,correct,0.309629699999277
P119,down,59,exhale,correct,0.343033599998307
P119,right,0,inhale,correct,0.405023799999981
P119,down,1,exhale,correct,0.391505199999301
P119,left,2,inhale,correct,0.327620899999602
P119,up,3,exhale,correct,0.478959200001555
P119,right,4,inhale,correct,0.453406599999653
P119,left,5,exhale,correct,0.264381699998921
P119,down,6,inhale,correct,0.275672000001578
P119,right,7,exhale,correct,0.31675019999966
P119,up,8,inhale,correct,0.267734499999278
P119,catch,9,exhale,correct,NA
P119,up,10,inhale,correct,0.314023499999166
P119,right,11,exhale,correct,0.423986499999955
P119,catch,12,inhale,correct,NA
P119,down,13,inhale,correct,0.419478199999503
P119,up,14,exhale,correct,0.337605199998507
P119,left,15,inhale,correct,0.377081099999486
P119,up,16,exhale,correct,0.393273400000908
P119,up,17,inhale,correct,0.51951949999966
P119,left,18,exhale,correct,0.297453999999561
P119,left,19,inhale,correct,0.373309800001152
P119,catch,20,exhale,correct,NA
P119,left,21,exhale,correct,0.286017399999764
P119,right,22,inhale,correct,0.38911569999982
P119,up,23,exhale,correct,0.640440700000909
P119,down,24,inhale,correct,0.37562539999999
P119,catch,25,exhale,correct,NA
P119,right,26,exhale,correct,0.297837199999776
P119,up,27,inhale,correct,0.334952899998825
P119,right,28,exhale,correct,0.3442989999985
P119,catch,29,inhale,correct,NA
P119,left,30,exhale,correct,0.413258000000496
P119,up,31,inhale,correct,0.37832779999917
P119,catch,32,exhale,correct,NA
P119,down,33,inhale,correct,0.361292399999002
P119,catch,34,exhale,correct,NA
P119,left,35,exhale,correct,0.279209500000434
P119,up,36,inhale,correct,0.285878900000171
P119,catch,37,exhale,correct,NA
P119,catch,38,inhale,correct,NA
P119,down,39,inhale,correct,0.3519481000003
P119,left,40,exhale,correct,0.381573499998922
P119,left,41,inhale,correct,0.342310600000928
P119,catch,42,exhale,correct,NA
P119,left,43,inhale,correct,0.33246699999836
P119,down,44,exhale,correct,0.376286500000788
P119,catch,45,inhale,correct,NA
P119,right,46,inhale,correct,0.414440500000637
P119,left,47,exhale,correct,0.478726400000596
P119,up,48,inhale,correct,0.306049200000416
P119,down,49,exhale,correct,0.318478299999697
P119,right,50,inhale,correct,0.378601200000048
P119,right,51,exhale,correct,0.350274200000058
P119,catch,52,inhale,correct,NA
P119,down,53,inhale,correct,0.302192399998603
P119,catch,54,exhale,correct,NA
P119,right,55,inhale,correct,0.312534599999708
P119,left,56,exhale,correct,0.447096100000635
P119,right,57,inhale,correct,0.27613779999956
P119,down,58,exhale,correct,0.43183610000051
P119,down,59,inhale,correct,0.403422299999875
P120,down,0,exhale,correct,0.452551600001243
P120,right,1,inhale,correct,0.490447900001527
P120,up,2,exhale,correct,0.591260500001226
P120,up,3,inhale,correct,0.623856500000329
P120,down,4,exhale,correct,0.396484599999894
P120,left,5,inhale,correct,0.389395100000911
P120,left,6,exhale,correct,0.469323699999222
P120,catch,7,inhale,correct,NA
P120,down,8,exhale,correct,0.474978199999896
P120,right,9,inhale,correct,0.478638799999317
P120,left,10,exhale,correct,0.453925199999503
P120,right,11,inhale,correct,0.557879199999661
P120,catch,12,exhale,correct,NA
P120,up,13,inhale,correct,0.607781799999429
P120,catch,14,exhale,correct,NA
P120,down,15,inhale,correct,0.807176600001185
P120,left,16,exhale,correct,0.400022800000443
P120,right,17,inhale,correct,0.387521900000138
P120,down,18,exhale,correct,0.43673839999974
P120,catch,19,inhale,correct,NA
P120,right,20,exhale,correct,0.380137600001035
P120,left,21,inhale,correct,0.725080300000627
P120,right,22,exhale,correct,0.301322400000572
P120,up,23,inhale,correct,0.284796899999492
P120,right,24,exhale,correct,0.286612899999454
P120,up,25,inhale,correct,0.349361500000668
P120,catch,26,exhale,correct,NA
P120,catch,27,inhale,correct,NA
P120,left,28,exhale,correct,0.510339799999201
P120,up,29,inhale,correct,0.438375199999427
P120,catch,30,exhale,correct,NA
P120,up,31,inhale,correct,0.433888300000035
P120,up,32,exhale,correct,0.348539399999936
P120,catch,33,inhale,correct,NA
P120,left,34,exhale,correct,0.399448600001051
P120,down,35,inhale,correct,0.500392300000385
P120,down,36,exhale,correct,0.417916500000501
P120,catch,37,inhale,correct,NA
P120,right,38,exhale,correct,0.339681599998585
P120,left,39,inhale,correct,0.445722000000387
P120,up,40,exhale,correct,0.481877999998687
P120,down,41,inhale,correct,0.314060699998663
P120,up,42,exhale,correct,0.503740300000572
P120,catch,43,inhale,correct,NA
P120,down,44,exhale,correct,0.297884400000839
P120,right,45,inhale,correct,0.368206500001179
P120,left,46,exhale,correct,0.55782360000012
P120,down,47,inhale,correct,0.574328000000605
P120,left,48,exhale,correct,0.397649399999864
P120,left,49,inhale,correct,0.265388600000733
P120,right,50,exhale,correct,0.39814959999967
P120,up,51,inhale,correct,0.359585299998798
P120,up,52,exhale,correct,0.343061700001272
P120,right,53,inhale,correct,0.298003300000346
P120,down,54,exhale,correct,0.387182700000267
P120,catch,55,inhale,correct,NA
P120,up,56,exhale,correct,0.365117100000134
P120,right,57,inhale,correct,0.450852599999052
P120,down,58,exhale,correct,0.313705599999594
P120,down,59,inhale,correct,0.405616400001236
P120,right,0,exhale,correct,0.376079300000129
P120,down,1,inhale,correct,0.431232900000396
P120,left,2,exhale,correct,0.342610000001514
P120,up,3,inhale,correct,0.276703500001531
P120,right,4,exhale,correct,0.346320699998614
P120,left,5,inhale,correct,0.395757299998877
P120,down,6,exhale,correct,0.509507599999779
P120,right,7,inhale,correct,0.323248199998488
P120,up,8,exhale,correct,0.333978200000274
P120,catch,9,inhale,correct,NA
P120,up,10,exhale,correct,0.315300000000207
P120,right,11,inhale,correct,0.413265399998636
P120,catch,12,exhale,correct,NA
P120,down,13,inhale,correct,0.486336799998753
P120,up,14,exhale,correct,0.437692699999388
P120,left,15,inhale,correct,0.457824799999798
P120,up,16,exhale,correct,0.708860400000049
P120,up,17,inhale,correct,0.263807000001179
P120,left,18,exhale,correct,0.501408300000548
P120,left,19,inhale,correct,0.405803900001047
P120,catch,20,exhale,correct,NA
P120,left,21,inhale,correct,0.433413099999598
P120,right,22,exhale,correct,0.377176199999667
P120,up,23,inhale,correct,0.340250799999922
P120,down,24,exhale,correct,0.327964699999939
P120,catch,25,inhale,correct,NA
P120,right,26,exhale,correct,0.385556299999735
P120,up,27,inhale,correct,0.398409299999912
P120,right,28,exhale,correct,0.470792899999651
P120,catch,29,inhale,correct,NA
P120,left,30,exhale,correct,0.479773200000636
P120,up,31,inhale,correct,0.373200399999405
P120,catch,32,exhale,correct,NA
P120,down,33,inhale,correct,0.3905939999986
P120,catch,34,exhale,correct,NA
P120,left,35,inhale,correct,0.492725399999472
P120,up,36,exhale,correct,0.451087399998869
P120,catch,37,inhale,correct,NA
P120,catch,38,exhale,correct,NA
P120,down,39,inhale,correct,0.415111900001648
P120,left,40,exhale,correct,0.413138899999467
P120,left,41,inhale,correct,0.410234299997683
P120,catch,42,exhale,correct,NA
P120,left,43,inhale,correct,0.341674200000853
P120,down,44,exhale,correct,0.382913200002804
P120,catch,45,inhale,correct,NA
P120,right,46,exhale,correct,0.373883299998852
P120,left,47,inhale,correct,0.391668299998855
P120,up,48,exhale,correct,0.49084479999874
P120,down,49,inhale,correct,0.345464599999104
P120,right,50,exhale,correct,0.462703299999703
P120,right,51,inhale,correct,0.434066199999506
P120,catch,52,exhale,correct,NA
P120,down,53,inhale,correct,0.406815499998629
P120,catch,54,exhale,correct,NA
P120,right,55,inhale,correct,0.400714099996549
P120,left,56,exhale,correct,0.445603599997412
P120,right,57,inhale,correct,0.419362199998432
P120,down,58,exhale,correct,0.416168300002028
P120,down,59,inhale,correct,0.387422600000718
P123,down,0,exhale,correct,0.422244599998521
P123,right,1,inhale,correct,0.254421399997227
P123,up,2,exhale,correct,0.394533200000296
P123,up,3,inhale,correct,0.273991100002604
P123,down,4,exhale,correct,0.265067500000441
P123,left,5,inhale,correct,0.253023099998245
P123,left,6,exhale,correct,0.324051799998415
P123,catch,7,inhale,correct,NA
P123,down,8,exhale,correct,0.367322699999932
P123,right,9,inhale,correct,0.351500000000669
P123,left,10,exhale,correct,0.308425400002307
P123,right,11,inhale,correct,0.316155399999843
P123,catch,12,exhale,correct,NA
P123,up,13,inhale,correct,0.27289970000129
P123,catch,14,exhale,correct,NA
P123,down,15,exhale,correct,0.369832799999131
P123,left,16,inhale,correct,0.507789799998136
P123,right,17,exhale,correct,0.407776000000013
P123,down,18,inhale,correct,0.312415899999905
P123,catch,19,exhale,correct,NA
P123,right,20,exhale,correct,0.358085200001369
P123,left,21,inhale,correct,0.280119300001388
P123,right,22,exhale,correct,0.710758400000486
P123,up,23,inhale,correct,0.300412299999152
P123,right,24,exhale,correct,0.383578299999499
P123,up,25,inhale,correct,0.288175599998794
P123,catch,26,exhale,correct,NA
P123,catch,27,exhale,correct,NA
P123,left,28,inhale,correct,0.31686990000162
P123,up,29,exhale,correct,0.278978000002098
P123,catch,30,inhale,correct,NA
P123,up,31,exhale,correct,0.331536199999391
P123,up,32,inhale,correct,0.249551099997916
P123,catch,33,exhale,correct,NA
P123,left,34,inhale,correct,0.361734899997828
P123,down,35,exhale,correct,0.415437999999995
P123,down,36,inhale,correct,0.344844700000976
P123,catch,37,exhale,correct,NA
P123,right,38,exhale,correct,0.277555600001506
P123,left,39,inhale,correct,0.400289400000474
P123,up,40,exhale,correct,0.285706700000446
P123,down,41,inhale,correct,0.292965900000127
P123,up,42,exhale,correct,0.310615000002144
P123,catch,43,inhale,correct,NA
P123,down,44,inhale,correct,0.37996639999983
P123,right,45,exhale,correct,0.379134500002692
P123,left,46,inhale,correct,0.370729799997207
P123,down,47,exhale,correct,0.373875799999951
P123,left,48,inhale,correct,0.426927100001194
P123,left,49,exhale,correct,0.250885800000106
P123,right,50,inhale,correct,0.339296699999977
P123,up,51,exhale,correct,0.303465299999516
P123,up,52,inhale,correct,0.44266929999867
P123,right,53,exhale,correct,0.333662199998798
P123,down,54,inhale,correct,0.547740899997734
P123,catch,55,exhale,correct,NA
P123,up,56,inhale,correct,0.306077199998981
P123,right,57,exhale,correct,0.327956999997696
P123,down,58,inhale,correct,0.313901699999406
P123,down,59,exhale,correct,0.397574099999474
P123,right,0,exhale,correct,0.564210199998342
P123,down,1,inhale,correct,0.304151299998921
P123,left,2,exhale,correct,0.440081299999292
P123,up,3,inhale,correct,0.308827900000324
P123,right,4,exhale,correct,0.295404399999825
P123,left,5,inhale,correct,0.343994099999691
P123,down,6,exhale,correct,0.286475199998677
P123,right,7,inhale,correct,0.425717800000712
P123,up,8,exhale,correct,0.561309500000789
P123,catch,9,inhale,correct,NA
P123,up,10,exhale,correct,0.270398500000738
P123,right,11,inhale,correct,0.385868299999856
P123,catch,12,exhale,correct,NA
P123,down,13,exhale,correct,0.284834999998566
P123,up,14,inhale,correct,0.355133299999579
P123,left,15,exhale,correct,0.288943499999732
P123,up,16,inhale,correct,0.359628899997915
P123,up,17,exhale,correct,0.291117200002191
P123,left,18,inhale,correct,0.349594400002388
P123,left,19,exhale,correct,0.58607259999917
P123,catch,20,inhale,correct,NA
P123,left,21,inhale,correct,0.418454399998154
P123,right,22,exhale,correct,0.286490899998171
P123,up,23,inhale,correct,0.370013100000506
P123,down,24,exhale,correct,0.297995700002502
P123,catch,25,inhale,correct,NA
P123,right,26,inhale,correct,0.354519900000014
P123,up,27,exhale,correct,0.298443399999087
P123,right,28,inhale,correct,0.318942600002629
P123,catch,29,exhale,correct,NA
P123,left,30,exhale,correct,0.375322799998685
P123,up,31,inhale,correct,0.377259699998831
P123,catch,32,exhale,correct,NA
P123,down,33,exhale,correct,0.316634999999224
P123,catch,34,inhale,correct,NA
P123,left,35,exhale,correct,0.438381199997821
P123,up,36,inhale,correct,0.37458179999885
P123,catch,37,exhale,correct,NA
P123,catch,38,inhale,correct,NA
P123,down,39,exhale,correct,0.409422599997924
P123,left,40,inhale,correct,0.367539700000634
P123,left,41,exhale,correct,0.367488899999444
P123,catch,42,inhale,correct,NA
P123,left,43,exhale,correct,0.39007799999672
P123,down,44,inhale,correct,0.401396200002637
P123,catch,45,exhale,correct,NA
P123,right,46,exhale,correct,0.498443899999984
P123,left,47,inhale,correct,0.411164199998893
P123,up,48,exhale,correct,0.465644899999461
P123,down,49,inhale,correct,0.398184099998616
P123,right,50,exhale,correct,0.289431400000467
P123,right,51,inhale,correct,0.32105170000068
P123,catch,52,exhale,correct,NA
P123,down,53,inhale,correct,0.422417400000995
P123,catch,54,exhale,correct,NA
P123,right,55,inhale,correct,0.361487800000759
P123,left,56,exhale,incorrect,NA
P123,right,57,exhale,correct,0.329101800001808
P123,down,58,inhale,correct,0.34207239999887
P123,down,59,exhale,correct,0.530054700000619
P124,down,0,exhale,correct,0.555393999999978
P124,right,1,inhale,correct,0.597739699999693
P124,up,2,exhale,correct,0.334583300000304
P124,up,3,inhale,correct,0.346824600000218
P124,down,4,exhale,correct,0.443993400000181
P124,left,5,inhale,correct,0.403949000000466
P124,left,6,exhale,correct,0.348724299999958
P124,catch,7,inhale,correct,NA
P124,down,8,exhale,correct,0.198873100000128
P124,right,9,inhale,correct,0.455654899999899
P124,left,10,exhale,correct,0.417520699999841
P124,right,11,inhale,incorrect,NA
P124,catch,12,exhale,correct,NA
P124,up,13,inhale,correct,0.289314199999353
P124,catch,14,exhale,correct,NA
P124,down,15,inhale,correct,0.244562700000643
P124,left,16,exhale,correct,0.414652700000261
P124,right,17,inhale,correct,0.320458799999869
P124,down,18,exhale,correct,0.562408899999355
P124,catch,19,inhale,correct,NA
P124,right,20,exhale,correct,0.360502700000325
P124,left,21,inhale,correct,0.567885399999795
P124,right,22,exhale,correct,0.48552380000001
P124,up,23,inhale,correct,0.451332699999512
P124,right,24,exhale,correct,0.245551999999407
P124,up,25,inhale,correct,0.266717000000426
P124,catch,26,exhale,correct,NA
P124,catch,27,inhale,correct,NA
P124,left,28,exhale,correct,0.410547399999814
P124,up,29,inhale,correct,0.655502399999932
P124,catch,30,exhale,correct,NA
P124,up,31,inhale,correct,0.248870300000817
P124,up,32,exhale,correct,0.37680249999994
P124,catch,33,inhale,correct,NA
P124,left,34,exhale,correct,0.367362799999682
P124,down,35,inhale,correct,0.355667499999981
P124,down,36,exhale,correct,0.288882399999238
P124,catch,37,inhale,correct,NA
P124,right,38,exhale,correct,0.374407000000247
P124,left,39,inhale,correct,0.443213599999581
P124,up,40,exhale,correct,0.362724900000103
P124,down,41,inhale,incorrect,NA
P124,up,42,exhale,correct,0.271277199999531
P124,catch,43,inhale,correct,NA
P124,down,44,exhale,correct,0.415017999999691
P124,right,45,inhale,correct,0.510615299999699
P124,left,46,exhale,correct,0.269437899999502
P124,down,47,inhale,correct,0.371156399999563
P124,left,48,exhale,correct,0.361690499999895
P124,left,49,inhale,correct,0.488311000000067
P124,right,50,exhale,correct,0.389228600000024
P124,up,51,inhale,correct,0.358220500000243
P124,up,52,exhale,correct,0.360644999999749
P124,right,53,inhale,correct,0.76178979999986
P124,down,54,exhale,correct,0.377361400000154
P124,catch,55,inhale,correct,NA
P124,up,56,exhale,correct,0.301371600000493
P124,right,57,inhale,correct,0.519136800000524
P124,down,58,exhale,correct,0.431235999999444
P124,down,59,inhale,correct,0.482573299999785
P124,right,0,exhale,correct,0.36722060000011
P124,down,1,inhale,correct,0.384860800000752
P124,left,2,exhale,correct,0.427365499999723
P124,up,3,inhale,correct,0.46167400000013
P124,right,4,exhale,correct,0.457042299999557
P124,left,5,inhale,correct,0.353961400000117
P124,down,6,exhale,correct,0.22818019999977
P124,right,7,inhale,correct,0.365816700000323
P124,up,8,exhale,correct,0.370066399999814
P124,catch,9,inhale,correct,NA
P124,up,10,inhale,correct,0.312744199999543
P124,right,11,exhale,correct,0.344279399999323
P124,catch,12,inhale,correct,NA
P124,down,13,exhale,correct,0.275313900000583
P124,up,14,inhale,correct,0.322564899999634
P124,left,15,exhale,correct,0.333980600000359
P124,up,16,inhale,correct,0.308088600000701
P124,up,17,exhale,correct,0.32417390000046
P124,left,18,inhale,correct,0.36788820000038
P124,left,19,exhale,correct,0.31111779999992
P124,catch,20,inhale,correct,NA
P124,left,21,exhale,correct,0.343640799999775
P124,right,22,inhale,correct,0.445690399999876
P124,up,23,exhale,correct,0.760831699999471
P124,down,24,inhale,correct,0.598186499999429
P124,catch,25,exhale,correct,NA
P124,right,26,inhale,correct,0.481858999999531
P124,up,27,exhale,correct,0.308223600000019
P124,right,28,inhale,correct,0.2988734999999
P124,catch,29,exhale,correct,NA
P124,left,30,inhale,correct,0.462120700000014
P124,up,31,exhale,correct,0.402572599999985
P124,catch,32,inhale,correct,NA
P124,down,33,exhale,correct,0.31864829999995
P124,catch,34,inhale,correct,NA
P124,left,35,exhale,correct,0.37357030000021
P124,up,36,inhale,correct,0.387593899999956
P124,catch,37,exhale,correct,NA
P124,catch,38,exhale,correct,NA
P124,down,39,inhale,correct,0.283794500000113
P124,left,40,exhale,correct,0.37465179999981
P124,left,41,inhale,correct,0.403855599999588
P124,catch,42,exhale,correct,NA
P124,left,43,exhale,correct,0.391846800000167
P124,down,44,inhale,correct,0.546590599999945
P124,catch,45,exhale,correct,NA
P124,right,46,inhale,correct,0.334895799999686
P124,left,47,exhale,correct,0.343539099999361
P124,up,48,inhale,correct,0.390493700000661
P124,down,49,exhale,correct,0.316205899999659
P124,right,50,inhale,correct,0.37715659999958
P124,right,51,exhale,correct,0.587220100000195
P124,catch,52,inhale,correct,NA
P124,down,53,exhale,correct,0.322337700000389
P124,catch,54,inhale,correct,NA
P124,right,55,exhale,correct,0.394681199999468
P124,left,56,inhale,correct,0.361685799999577
P124,right,57,exhale,correct,0.311114199999793
P124,down,58,inhale,correct,0.569059099999322
P124,down,59,exhale,correct,0.600041100000453
P125,down,0,exhale,correct,0.709851400000844
P125,right,1,inhale,correct,0.371711399999185
P125,up,2,exhale,correct,0.305849799999123
P125,up,3,inhale,correct,0.719529699999839
P125,down,4,exhale,correct,0.461133699998754
P125,left,5,inhale,correct,0.342896199999814
P125,left,6,exhale,correct,0.289227600000231
P125,catch,7,inhale,correct,NA
P125,down,8,inhale,correct,0.382424799998262
P125,right,9,exhale,correct,0.381806400000642
P125,left,10,inhale,correct,0.332409800001187
P125,right,11,exhale,correct,0.311470200000258
P125,catch,12,inhale,correct,NA
P125,up,13,inhale,correct,0.42111069999919
P125,catch,14,exhale,correct,NA
P125,down,15,inhale,correct,0.344796699999279
P125,left,16,exhale,correct,0.31173089999902
P125,right,17,inhale,correct,0.282497800000783
P125,down,18,exhale,correct,0.446458399999756
P125,catch,19,inhale,correct,NA
P125,right,20,inhale,correct,0.377771499999653
P125,left,21,exhale,correct,0.298741600001449
P125,right,22,inhale,correct,0.432103199998892
P125,up,23,exhale,correct,0.308724300000904
P125,right,24,inhale,correct,0.357211299999108
P125,up,25,exhale,correct,0.381216599998879
P125,catch,26,inhale,correct,NA
P125,catch,27,exhale,correct,NA
P125,left,28,inhale,correct,0.298342399999456
P125,up,29,exhale,correct,0.578709100000196
P125,catch,30,inhale,correct,NA
P125,up,31,exhale,correct,0.400177299999996
P125,up,32,inhale,correct,0.33605930000158
P125,catch,33,exhale,correct,NA
P125,left,34,inhale,correct,0.35647919999974
P125,down,35,exhale,correct,0.38406059999943
P125,down,36,inhale,correct,0.380794599999717
P125,catch,37,exhale,correct,NA
P125,right,38,inhale,correct,0.408651100000498
P125,left,39,exhale,correct,0.252556800000093
P125,up,40,inhale,correct,0.317331899999772
P125,down,41,exhale,correct,0.367419099999097
P125,up,42,inhale,correct,0.34634829999959
P125,catch,43,exhale,correct,NA
P125,down,44,inhale,correct,0.512547899999845
P125,right,45,exhale,correct,0.586413299999549
P125,left,46,inhale,correct,0.387719299998935
P125,down,47,exhale,correct,0.351840600000287
P125,left,48,inhale,correct,0.282080700000733
P125,left,49,exhale,correct,0.389707700000145
P125,right,50,inhale,correct,0.449294400001236
P125,up,51,exhale,correct,0.280655399999887
P125,up,52,inhale,correct,0.264795999999478
P125,right,53,exhale,correct,0.300453699999707
P125,down,54,inhale,correct,0.289704900000288
P125,catch,55,exhale,correct,NA
P125,up,56,inhale,correct,0.552059600000575
P125,right,57,exhale,correct,0.318780999999944
P125,down,58,inhale,correct,0.408468499999799
P125,down,59,exhale,correct,0.433657999999923
P125,right,0,exhale,correct,0.450952700000926
P125,down,1,inhale,correct,0.376177799998914
P125,left,2,exhale,correct,0.332752899999832
P125,up,3,inhale,correct,0.266883999998754
P125,right,4,exhale,correct,0.30408990000069003
P125,left,5,inhale,correct,0.408392199999071
P125,down,6,exhale,correct,0.33040710000023
P125,right,7,inhale,correct,0.486547299999074
P125,up,8,exhale,correct,0.348336299999573
P125,catch,9,inhale,correct,NA
P125,up,10,exhale,correct,0.342802600000141
P125,right,11,inhale,correct,0.4106412000001
P125,catch,12,exhale,correct,NA
P125,down,13,exhale,correct,0.413113099999464
P125,up,14,inhale,correct,0.357763300000443
P125,left,15,exhale,correct,0.910814900000332
P125,up,16,inhale,correct,0.341859199999817
P125,up,17,exhale,correct,0.33670709999933
P125,left,18,inhale,correct,0.303940399999192
P125,left,19,exhale,correct,0.278637700001127
P125,catch,20,inhale,correct,NA
P125,left,21,inhale,correct,0.292924800000037
P125,right,22,exhale,correct,0.4111271999991
P125,up,23,inhale,correct,0.645988599999328
P125,down,24,exhale,correct,0.354175499998746
P125,catch,25,inhale,correct,NA
P125,right,26,exhale,correct,0.417668699999922
P125,up,27,inhale,correct,0.320845100000952
P125,right,28,exhale,correct,0.356763499999943
P125,catch,29,inhale,correct,NA
P125,left,30,inhale,correct,0.426896799999668
P125,up,31,exhale,correct,0.33930970000074
P125,catch,32,inhale,correct,NA
P125,down,33,inhale,correct,0.384494699999777
P125,catch,34,exhale,correct,NA
P125,left,35,exhale,correct,0.417816099999982
P125,up,36,inhale,correct,0.442765100000543
P125,catch,37,exhale,correct,NA
P125,catch,38,exhale,correct,NA
P125,down,39,inhale,correct,0.336997899999915
P125,left,40,exhale,correct,0.366716200000155
P125,left,41,inhale,correct,0.389336400001412
P125,catch,42,exhale,correct,NA
P125,left,43,exhale,correct,0.387731599999825
P125,down,44,inhale,correct,0.409126399999877
P125,catch,45,exhale,correct,NA
P125,right,46,exhale,correct,0.727443600000697
P125,left,47,inhale,correct,0.481844099998852
P125,up,48,exhale,correct,0.354867000000013
P125,down,49,inhale,correct,0.384387399999468
P125,right,50,exhale,correct,0.699516399999993
P125,right,51,inhale,correct,0.345707800001037
P125,catch,52,exhale,correct,NA
P125,down,53,exhale,correct,0.35606369999914
P125,catch,54,inhale,correct,NA
P125,right,55,inhale,correct,0.435587399999349
P125,left,56,exhale,correct,0.305013000001054
P125,right,57,inhale,correct,0.313029500000994
P125,down,58,exhale,correct,0.317284999999174
P125,down,59,inhale,correct,0.332244500001252
P126,down,0,exhale,correct,0.499590800000078
P126,right,1,inhale,correct,0.3818425999998
P126,up,2,exhale,correct,0.33129530000042
P126,up,3,inhale,correct,0.364985300000626
P126,down,4,exhale,correct,0.266503700000612
P126,left,5,inhale,correct,0.287084900000991
P126,left,6,exhale,correct,0.318191299998944
P126,catch,7,inhale,correct,NA
P126,down,8,inhale,correct,0.347641000000294
P126,right,9,exhale,correct,0.371904800000266
P126,left,10,inhale,correct,0.281789700000445
P126,right,11,exhale,correct,0.365542400000777
P126,catch,12,inhale,correct,NA
P126,up,13,inhale,correct,0.432773999998972
P126,catch,14,exhale,correct,NA
P126,down,15,exhale,correct,0.486781899999187
P126,left,16,inhale,correct,0.326616500000455
P126,right,17,exhale,correct,0.365683399999398
P126,down,18,inhale,correct,0.502253900000142
P126,catch,19,exhale,correct,NA
P126,right,20,inhale,correct,0.394164600000295
P126,left,21,exhale,correct,0.405315799998789
P126,right,22,inhale,correct,0.361517600000298
P126,up,23,exhale,correct,0.318186700000297
P126,right,24,inhale,correct,0.373474800000622
P126,up,25,exhale,correct,0.323096300000543
P126,catch,26,inhale,correct,NA
P126,catch,27,exhale,correct,NA
P126,left,28,inhale,correct,0.376115799999752
P126,up,29,exhale,correct,0.417995499999961
P126,catch,30,inhale,correct,NA
P126,up,31,exhale,correct,0.409975499998836
P126,up,32,inhale,correct,0.381049699999494
P126,catch,33,exhale,correct,NA
P126,left,34,exhale,correct,0.356541999999536
P126,down,35,inhale,correct,0.376207300001624
P126,down,36,exhale,correct,0.372208099999625
P126,catch,37,inhale,correct,NA
P126,right,38,exhale,correct,0.406705999999758
P126,left,39,inhale,correct,0.408482999999251
P126,up,40,exhale,correct,0.361715200000617
P126,down,41,inhale,correct,0.480305400000361
P126,up,42,exhale,correct,0.291047200000321
P126,catch,43,inhale,correct,NA
P126,down,44,exhale,correct,0.39211350000005
P126,right,45,inhale,correct,0.340487499999654
P126,left,46,exhale,correct,0.270120899998801
P126,down,47,inhale,correct,0.346506299998509
P126,left,48,exhale,correct,0.313010500000019
P126,left,49,inhale,correct,0.377786500001093
P126,right,50,exhale,correct,0.366026400000919
P126,up,51,inhale,correct,0.347027799998614
P126,up,52,exhale,correct,0.298409200000606
P126,right,53,inhale,correct,0.342366099999708
P126,down,54,exhale,correct,0.310390599999664
P126,catch,55,inhale,correct,NA
P126,up,56,exhale,correct,0.357464700000492
P126,right,57,inhale,correct,0.325601300000926
P126,down,58,exhale,correct,0.312098799999148
P126,down,59,inhale,correct,0.377083899998979
P126,right,0,exhale,correct,0.482468199999857
P126,down,1,inhale,correct,0.341186100000414
P126,left,2,exhale,correct,0.339062600000034
P126,up,3,inhale,correct,0.336220899998807
P126,right,4,exhale,correct,0.322559800000818
P126,left,5,inhale,correct,0.351620499999626
P126,down,6,exhale,correct,0.38476190000074
P126,right,7,inhale,correct,0.522417800000767
P126,up,8,exhale,correct,0.291247099999964
P126,catch,9,inhale,correct,NA
P126,up,10,inhale,correct,0.368294300000343
P126,right,11,exhale,correct,0.365004000001136
