participant_ID,target_x,validity,trial,phase,response,rt,Participant
P101,10,catch,0,inhale,correct,NA,P101
P101,10,catch,1,inhale,correct,NA,P101
P101,0.31,invalid,2,inhale,correct,0.615408700003172,P101
P101,0.31,invalid,3,inhale,correct,0.437518499995349,P101
P101,-0.31,valid,4,inhale,correct,0.388953100002254,P101
P101,-0.31,invalid,5,inhale,correct,0.434917899998254,P101
P101,0.31,valid,6,inhale,correct,0.434928799993941,P101
P101,-0.31,invalid,7,inhale,correct,0.38259750000725,P101
P101,-0.31,valid,8,inhale,correct,0.355486200001906,P101
P101,-0.31,invalid,9,inhale,correct,0.396362499988754,P101
P101,0.31,invalid,10,inhale,correct,0.42324840000947,P101
P101,-0.31,invalid,11,inhale,correct,0.411125999991782,P101
P101,0.31,valid,12,inhale,correct,0.359009000007063,P101
P101,10,catch,13,inhale,correct,NA,P101
P101,-0.31,invalid,14,inhale,correct,0.441875200005597,P101
P101,-0.31,valid,15,inhale,correct,0.47339890000876,P101
P101,10,catch,16,inhale,correct,NA,P101
P101,10,catch,17,inhale,correct,NA,P101
P101,0.31,invalid,18,inhale,correct,0.497908100005588,P101
P101,10,catch,19,inhale,correct,NA,P101
P101,0.31,invalid,20,inhale,correct,0.414136699997471,P101
P101,-0.31,valid,21,inhale,correct,0.406381699998747,P101
P101,0.31,valid,22,inhale,correct,0.513385099999141,P101
P101,-0.31,invalid,23,inhale,correct,0.405645699996967,P101
P101,0.31,valid,24,inhale,correct,0.293103899995913,P101
P101,-0.31,invalid,25,inhale,correct,0.556161900007282,P101
P101,-0.31,valid,26,inhale,correct,0.353992000003927,P101
P101,0.31,valid,27,inhale,correct,0.347993699993822,P101
P101,10,catch,28,inhale,correct,NA,P101
P101,0.31,valid,29,inhale,correct,0.424969799991231,P101
P101,0.31,valid,30,inhale,correct,0.360176300004241,P101
P101,-0.31,valid,31,inhale,correct,0.390924599996652,P101
P101,0.31,valid,32,inhale,correct,0.33127749999403,P101
P101,-0.31,invalid,33,inhale,correct,0.454537400000845,P101
P101,10,catch,34,inhale,correct,NA,P101
P101,0.31,valid,35,inhale,correct,0.502328800008399,P101
P101,-0.31,invalid,36,inhale,correct,0.407541499997023,P101
P101,0.31,invalid,37,inhale,correct,0.403450799989514,P101
P101,0.31,invalid,38,inhale,correct,0.464384599996265,P101
P101,0.31,valid,39,inhale,correct,0.415060100000119,P101
P101,0.31,invalid,40,inhale,correct,0.528489500007709,P101
P101,10,catch,41,inhale,correct,NA,P101
P101,-0.31,valid,42,inhale,correct,0.415947200002847,P101
P101,10,catch,43,inhale,correct,NA,P101
P101,0.31,invalid,44,inhale,correct,0.43620130000636,P101
P101,0.31,invalid,45,inhale,correct,0.488413500002935,P101
P101,0.31,valid,46,inhale,correct,0.527339799999027,P101
P101,-0.31,valid,47,inhale,correct,0.365671400009887,P101
P101,-0.31,invalid,48,inhale,correct,0.38715389999561,P101
P101,10,catch,49,inhale,correct,NA,P101
P101,-0.31,valid,50,inhale,correct,0.373737100002472,P101
P101,-0.31,valid,51,inhale,correct,0.404289400001289,P101
P101,-0.31,invalid,52,inhale,correct,0.379009399999632,P101
P101,-0.31,valid,53,inhale,correct,0.971749000003911,P101
P101,10,catch,54,inhale,correct,NA,P101
P101,0.31,invalid,55,inhale,correct,0.446385899995221,P101
P101,-0.31,valid,56,inhale,correct,0.385473999995156,P101
P101,0.31,valid,57,inhale,correct,0.422656100010499,P101
P101,-0.31,invalid,58,inhale,correct,0.393774199998006,P101
P101,0.31,invalid,59,inhale,correct,0.422754500003066,P101
P101,10,catch,0,exhale,correct,NA,P101
P101,10,catch,1,exhale,correct,NA,P101
P101,0.31,invalid,2,exhale,correct,0.440870099992026,P101
P101,0.31,invalid,3,exhale,correct,0.415665000007721,P101
P101,-0.31,valid,4,exhale,correct,0.460255399986636,P101
P101,-0.31,invalid,5,exhale,correct,0.496285200002603,P101
P101,0.31,valid,6,exhale,correct,0.473116699999082,P101
P101,-0.31,invalid,7,exhale,correct,0.426388299994869,P101
P101,-0.31,valid,8,exhale,correct,0.348803800006863,P101
P101,-0.31,invalid,9,exhale,correct,0.456131700004335,P101
P101,0.31,invalid,10,exhale,correct,0.412976199993864,P101
P101,-0.31,invalid,11,exhale,correct,0.460246300004655,P101
P101,0.31,valid,12,exhale,correct,0.481583200002206,P101
P101,10,catch,13,exhale,correct,NA,P101
P101,-0.31,invalid,14,exhale,correct,0.53218249999918,P101
P101,-0.31,valid,15,exhale,correct,0.435907099992619,P101
P101,10,catch,16,exhale,correct,NA,P101
P101,10,catch,17,exhale,correct,NA,P101
P101,0.31,invalid,18,exhale,correct,0.48794610000914,P101
P101,10,catch,19,exhale,correct,NA,P101
P101,0.31,invalid,20,exhale,correct,0.560068200007663,P101
P101,-0.31,valid,21,exhale,correct,0.504507699995884,P101
P101,0.31,valid,22,exhale,correct,0.512928199997987,P101
P101,-0.31,invalid,23,exhale,correct,0.66625790001126,P101
P101,0.31,valid,24,exhale,correct,0.512284899989027,P101
P101,-0.31,invalid,25,exhale,correct,0.367588699999033,P101
P101,-0.31,valid,26,exhale,correct,0.632890000008047,P101
P101,0.31,valid,27,exhale,correct,0.397028999999748,P101
P101,10,catch,28,exhale,correct,NA,P101
P101,0.31,valid,29,exhale,correct,0.387382900007651,P101
P101,0.31,valid,30,exhale,correct,0.398401699989336,P101
P101,-0.31,valid,31,exhale,correct,0.36433890000626,P101
P101,0.31,valid,32,exhale,correct,0.377271000004839,P101
P101,-0.31,invalid,33,exhale,correct,0.481400999997277,P101
P101,10,catch,34,exhale,correct,NA,P101
P101,0.31,valid,35,exhale,correct,0.415099999998347,P101
P101,-0.31,invalid,36,exhale,correct,0.543948799997452,P101
P101,0.31,invalid,37,exhale,correct,0.484061700000893,P101
P101,0.31,invalid,38,exhale,correct,0.536963099992136,P101
P101,0.31,valid,39,exhale,correct,0.978262300006463,P101
P101,0.31,invalid,40,exhale,correct,0.431930200007628,P101
P101,10,catch,41,exhale,correct,NA,P101
P101,-0.31,valid,42,exhale,correct,0.434017099993071,P101
P101,10,catch,43,exhale,correct,NA,P101
P101,0.31,invalid,44,exhale,correct,0.536287900002208,P101
P101,0.31,invalid,45,exhale,correct,0.506604700000025,P101
P101,0.31,valid,46,exhale,correct,0.441917599993758,P101
P101,-0.31,valid,47,exhale,correct,0.345522399991751,P101
P101,-0.31,invalid,48,exhale,correct,0.386686199999531,P101
P101,10,catch,49,exhale,correct,NA,P101
P101,-0.31,valid,50,exhale,correct,0.437091399988276,P101
P101,-0.31,valid,51,exhale,correct,0.538913700002013,P101
P101,-0.31,invalid,52,exhale,correct,0.400998700002674,P101
P101,-0.31,valid,53,exhale,correct,0.360098200006178,P101
P101,10,catch,54,exhale,correct,NA,P101
P101,0.31,invalid,55,exhale,correct,0.407015100005083,P101
P101,-0.31,valid,56,exhale,correct,0.412306300000637,P101
P101,0.31,valid,57,exhale,correct,0.408740499988198,P101
P101,-0.31,invalid,58,exhale,correct,0.376762100000633,P101
P101,0.31,invalid,59,exhale,correct,0.412118600012036,P101
P102,10,catch,0,exhale,correct,NA,P102
P102,10,catch,1,exhale,correct,NA,P102
P102,0.31,invalid,2,exhale,correct,0.487929500013706,P102
P102,0.31,invalid,3,exhale,correct,0.467097699991427,P102
P102,-0.31,valid,4,exhale,correct,0.430382900012773,P102
P102,-0.31,invalid,5,exhale,correct,0.49489940000057703,P102
P102,0.31,valid,6,exhale,correct,0.449472100008279,P102
P102,-0.31,invalid,7,exhale,correct,0.497396399994614,P102
P102,-0.31,valid,8,exhale,correct,0.444918400011375,P102
P102,-0.31,invalid,9,exhale,correct,0.556615800000145,P102
P102,0.31,invalid,10,exhale,correct,0.428104800012079,P102
P102,-0.31,invalid,11,exhale,correct,0.430612399999518,P102
P102,0.31,valid,12,exhale,correct,0.404311799997231,P102
P102,10,catch,13,exhale,correct,NA,P102
P102,-0.31,invalid,14,exhale,correct,0.45481799999834,P102
P102,-0.31,valid,15,exhale,correct,0.451064100008807,P102
P102,10,catch,16,exhale,correct,NA,P102
P102,10,catch,17,exhale,correct,NA,P102
P102,0.31,invalid,18,exhale,correct,0.48398210000596,P102
P102,10,catch,19,exhale,correct,NA,P102
P102,0.31,invalid,20,exhale,correct,0.470121800011839,P102
P102,-0.31,valid,21,exhale,correct,0.422027200009325,P102
P102,0.31,valid,22,exhale,correct,0.407400299998699,P102
P102,-0.31,invalid,23,exhale,correct,0.411498300003586,P102
P102,0.31,valid,24,exhale,correct,0.383584399998654,P102
P102,-0.31,invalid,25,exhale,correct,0.429893199994694,P102
P102,-0.31,valid,26,exhale,correct,0.410620400012704,P102
P102,0.31,valid,27,exhale,correct,0.455325100003392,P102
P102,10,catch,28,exhale,correct,NA,P102
P102,0.31,valid,29,exhale,correct,0.383149500004947,P102
P102,0.31,valid,30,exhale,correct,0.412681200003135,P102
P102,-0.31,valid,31,exhale,correct,0.420876400006819,P102
P102,0.31,valid,32,exhale,correct,0.552525699997204,P102
P102,-0.31,invalid,33,exhale,correct,0.402506300000823,P102
P102,10,catch,34,exhale,correct,NA,P102
P102,0.31,valid,35,exhale,correct,0.438153700000839,P102
P102,-0.31,invalid,36,exhale,correct,0.407687700004317,P102
P102,0.31,invalid,37,exhale,correct,0.497790800000075,P102
P102,0.31,invalid,38,exhale,correct,0.525596599996788,P102
P102,0.31,valid,39,exhale,correct,0.412644799987902,P102
P102,0.31,invalid,40,exhale,correct,0.444008500009659,P102
P102,10,catch,41,exhale,correct,NA,P102
P102,-0.31,valid,42,exhale,correct,0.458218300002045,P102
P102,10,catch,43,exhale,correct,NA,P102
P102,0.31,invalid,44,exhale,correct,0.421736400006921,P102
P102,0.31,invalid,45,exhale,correct,0.539390800011461,P102
P102,0.31,valid,46,exhale,correct,0.434580299988738,P102
P102,-0.31,valid,47,exhale,correct,0.400160400007735,P102
P102,-0.31,invalid,48,exhale,correct,0.472464099992067,P102
P102,10,catch,49,exhale,correct,NA,P102
P102,-0.31,valid,50,exhale,correct,0.373898399993777,P102
P102,-0.31,valid,51,exhale,correct,0.439246699999785,P102
P102,-0.31,invalid,52,exhale,correct,0.472440899990033,P102
P102,-0.31,valid,53,exhale,correct,0.355296599998837,P102
P102,10,catch,54,exhale,correct,NA,P102
P102,0.31,invalid,55,exhale,correct,0.616388199996436,P102
P102,-0.31,valid,56,exhale,correct,0.404987300003995,P102
P102,0.31,valid,57,exhale,correct,0.422079199997825,P102
P102,-0.31,invalid,58,exhale,correct,0.423431999995955,P102
P102,0.31,invalid,59,exhale,correct,0.46647140001005,P102
P102,10,catch,0,inhale,correct,NA,P102
P102,10,catch,1,inhale,correct,NA,P102
P102,0.31,invalid,2,inhale,correct,0.432012000004761,P102
P102,0.31,invalid,3,inhale,correct,0.430362099999911,P102
P102,-0.31,valid,4,inhale,correct,0.39473060000455,P102
P102,-0.31,invalid,5,inhale,correct,0.406322299997555,P102
P102,0.31,valid,6,inhale,correct,0.361447500006761,P102
P102,-0.31,invalid,7,inhale,correct,0.442170799986343,P102
P102,-0.31,valid,8,inhale,correct,0.420444100003806,P102
P102,-0.31,invalid,9,inhale,correct,0.429789600006188,P102
P102,0.31,invalid,10,inhale,correct,0.42493850000028,P102
P102,-0.31,invalid,11,inhale,correct,0.45822169999883,P102
P102,0.31,valid,12,inhale,correct,0.37839489999169,P102
P102,10,catch,13,inhale,correct,NA,P102
P102,-0.31,invalid,14,inhale,correct,0.562551700000768,P102
P102,-0.31,valid,15,inhale,correct,0.394338900005096,P102
P102,10,catch,16,inhale,correct,NA,P102
P102,10,catch,17,inhale,correct,NA,P102
P102,0.31,invalid,18,inhale,correct,0.498008299997309,P102
P102,10,catch,19,inhale,correct,NA,P102
P102,0.31,invalid,20,inhale,correct,0.446214299998246,P102
P102,-0.31,valid,21,inhale,correct,0.487869499993394,P102
P102,0.31,valid,22,inhale,correct,0.469046600002912,P102
P102,-0.31,invalid,23,inhale,correct,0.450291000001016,P102
P102,0.31,valid,24,inhale,correct,0.399423199996818,P102
P102,-0.31,invalid,25,inhale,correct,0.392051099988748,P102
P102,-0.31,valid,26,inhale,correct,0.461643900009221,P102
P102,0.31,valid,27,inhale,correct,0.417362499996671,P102
P102,10,catch,28,inhale,correct,NA,P102
P102,0.31,valid,29,inhale,correct,0.490151599995443,P102
P102,0.31,valid,30,inhale,correct,0.433673599996837,P102
P102,-0.31,valid,31,inhale,correct,0.452680700007477,P102
P102,0.31,valid,32,inhale,correct,0.41594440001063,P102
P102,-0.31,invalid,33,inhale,correct,0.42673669999931,P102
P102,10,catch,34,inhale,correct,NA,P102
P102,0.31,valid,35,inhale,correct,0.416509300004691,P102
P102,-0.31,invalid,36,inhale,correct,0.469186199989053,P102
P102,0.31,invalid,37,inhale,correct,0.409511899997597,P102
P102,0.31,invalid,38,inhale,correct,0.419817600006354,P102
P102,0.31,valid,39,inhale,correct,0.424292800002149,P102
P102,0.31,invalid,40,inhale,correct,0.473851200003992,P102
P102,10,catch,41,inhale,correct,NA,P102
P102,-0.31,valid,42,inhale,correct,0.451614499994321,P102
P102,10,catch,43,inhale,correct,NA,P102
P102,0.31,invalid,44,inhale,correct,0.426984699995955,P102
P102,0.31,invalid,45,inhale,correct,0.401282599996193,P102
P102,0.31,valid,46,inhale,correct,0.41371620001155,P102
P102,-0.31,valid,47,inhale,correct,0.386884300009115,P102
P102,-0.31,invalid,48,inhale,correct,0.371977900009369,P102
P102,10,catch,49,inhale,correct,NA,P102
P102,-0.31,valid,50,inhale,correct,0.484540999997989,P102
P102,-0.31,valid,51,inhale,correct,0.482144699999481,P102
P102,-0.31,invalid,52,inhale,correct,0.400666000001365,P102
P102,-0.31,valid,53,inhale,correct,0.537537199998042,P102
P102,10,catch,54,inhale,correct,NA,P102
P102,0.31,invalid,55,inhale,correct,0.465342399998917,P102
P102,-0.31,valid,56,inhale,correct,0.403590699992492,P102
P102,0.31,valid,57,inhale,correct,0.453213100001449,P102
P102,-0.31,invalid,58,inhale,correct,0.381575399995199,P102
P102,0.31,invalid,59,inhale,correct,0.393657299995539,P102
P103,10,catch,0,inhale,correct,NA,P103
P103,10,catch,1,inhale,correct,NA,P103
P103,0.31,invalid,2,inhale,correct,0.550107599992771,P103
P103,0.31,invalid,3,inhale,correct,0.494688199993107,P103
P103,-0.31,valid,4,inhale,correct,0.42921450000722,P103
P103,-0.31,invalid,5,inhale,correct,0.431498200006899,P103
P103,0.31,valid,6,inhale,correct,0.340707399998792,P103
P103,-0.31,invalid,7,inhale,correct,0.406217900002957,P103
P103,-0.31,valid,8,inhale,correct,0.423892000006163,P103
P103,-0.31,invalid,9,inhale,correct,0.418110900005559,P103
P103,0.31,invalid,10,inhale,correct,0.454388900005142,P103
P103,-0.31,invalid,11,inhale,correct,0.45845800000825,P103
P103,0.31,valid,12,inhale,correct,0.436381799998344,P103
P103,10,catch,13,inhale,correct,NA,P103
P103,-0.31,invalid,14,inhale,correct,0.41476149999653,P103
P103,-0.31,valid,15,inhale,correct,0.430007399991155,P103
P103,10,catch,16,inhale,incorrect,0.303278899998986,P103
P103,10,catch,17,inhale,correct,NA,P103
P103,0.31,invalid,18,inhale,correct,0.636816000012914,P103
P103,10,catch,19,inhale,correct,NA,P103
P103,0.31,invalid,20,inhale,correct,0.512050899997121,P103
P103,-0.31,valid,21,inhale,correct,0.402654999998049,P103
P103,0.31,valid,22,inhale,correct,0.460399000003235,P103
P103,-0.31,invalid,23,inhale,correct,0.466233800005284,P103
P103,0.31,valid,24,inhale,correct,0.425184299994726,P103
P103,-0.31,invalid,25,inhale,correct,0.41786129999673,P103
P103,-0.31,valid,26,inhale,correct,0.540504999997211,P103
P103,0.31,valid,27,inhale,correct,0.578636999998707,P103
P103,10,catch,28,inhale,correct,NA,P103
P103,0.31,valid,29,inhale,correct,0.60477649999666,P103
P103,0.31,valid,30,inhale,correct,0.433404199997312,P103
P103,-0.31,valid,31,inhale,correct,0.417219099996146,P103
P103,0.31,valid,32,inhale,correct,0.441471199999796,P103
P103,-0.31,invalid,33,inhale,correct,0.338394400008838,P103
P103,10,catch,34,inhale,correct,NA,P103
P103,0.31,valid,35,inhale,correct,0.539732300007017,P103
P103,-0.31,invalid,36,inhale,correct,0.446383100003004,P103
P103,0.31,invalid,37,inhale,correct,0.543441500005429,P103
P103,0.31,invalid,38,inhale,correct,0.507954000000609,P103
P103,0.31,valid,39,inhale,correct,0.531775700001162,P103
P103,0.31,invalid,40,inhale,correct,0.51950909999141,P103
P103,10,catch,41,inhale,correct,NA,P103
P103,-0.31,valid,42,inhale,correct,0.404671399999643,P103
P103,10,catch,43,inhale,correct,NA,P103
P103,0.31,invalid,44,inhale,correct,0.545212900004117,P103
P103,0.31,invalid,45,inhale,correct,0.517743299991707,P103
P103,0.31,valid,46,inhale,correct,0.405208100011805,P103
P103,-0.31,valid,47,inhale,correct,0.351576100001694,P103
P103,-0.31,invalid,48,inhale,correct,0.360193599990453,P103
P103,10,catch,49,inhale,correct,NA,P103
P103,-0.31,valid,50,inhale,correct,0.407024400003138,P103
P103,-0.31,valid,51,inhale,correct,0.487941900006263,P103
P103,-0.31,invalid,52,inhale,correct,0.506672199990135,P103
P103,-0.31,valid,53,inhale,correct,0.444484400009969,P103
P103,10,catch,54,inhale,correct,NA,P103
P103,0.31,invalid,55,inhale,correct,0.5555822999886,P103
P103,-0.31,valid,56,inhale,correct,0.439394400003948,P103
P103,0.31,valid,57,inhale,correct,0.715441599997575,P103
P103,-0.31,invalid,58,inhale,correct,0.39472699999169,P103
P103,0.31,invalid,59,inhale,correct,0.531553399996483,P103
P103,10,catch,0,exhale,correct,NA,P103
P103,10,catch,1,exhale,correct,NA,P103
P103,0.31,invalid,2,exhale,correct,0.512647099996684,P103
P103,0.31,invalid,3,exhale,correct,0.520974099999876,P103
P103,-0.31,valid,4,exhale,correct,0.434986100008246,P103
P103,-0.31,invalid,5,exhale,correct,0.519435499998508,P103
P103,0.31,valid,6,exhale,correct,0.91719639999792,P103
P103,-0.31,invalid,7,exhale,correct,0.484453299999586,P103
P103,-0.31,valid,8,exhale,correct,0.386022999999113,P103
P103,-0.31,invalid,9,exhale,correct,0.405623500002548,P103
P103,0.31,invalid,10,exhale,correct,0.338733500000671,P103
P103,-0.31,invalid,11,exhale,correct,0.391134300007252,P103
P103,0.31,valid,12,exhale,correct,0.481855899997754,P103
P103,10,catch,13,exhale,correct,NA,P103
P103,-0.31,invalid,14,exhale,correct,0.42734520000522,P103
P103,-0.31,valid,15,exhale,correct,0.343109699999331,P103
P103,10,catch,16,exhale,correct,NA,P103
P103,10,catch,17,exhale,correct,NA,P103
P103,0.31,invalid,18,exhale,correct,0.565511900000274,P103
P103,10,catch,19,exhale,correct,NA,P103
P103,0.31,invalid,20,exhale,correct,0.706752099998994,P103
P103,-0.31,valid,21,exhale,correct,0.406694100005552,P103
P103,0.31,valid,22,exhale,correct,0.444142899999861,P103
P103,-0.31,invalid,23,exhale,correct,0.481339099991601,P103
P103,0.31,valid,24,exhale,correct,0.335252200005925,P103
P103,-0.31,invalid,25,exhale,correct,0.422843899999862,P103
P103,-0.31,valid,26,exhale,correct,0.406156500001089,P103
P103,0.31,valid,27,exhale,correct,0.478324700001394,P103
P103,10,catch,28,exhale,correct,NA,P103
P103,0.31,valid,29,exhale,correct,0.484883800003445,P103
P103,0.31,valid,30,exhale,correct,0.460494600003585,P103
P103,-0.31,valid,31,exhale,correct,0.425151400006143,P103
P103,0.31,valid,32,exhale,correct,0.360884299996542,P103
P103,-0.31,invalid,33,exhale,correct,0.486438700012513,P103
P103,10,catch,34,exhale,correct,NA,P103
P103,0.31,valid,35,exhale,correct,0.462827399998787,P103
P103,-0.31,invalid,36,exhale,correct,0.638941299999715,P103
P103,0.31,invalid,37,exhale,correct,0.452894799993373,P103
P103,0.31,invalid,38,exhale,correct,0.513015300006373,P103
P103,0.31,valid,39,exhale,correct,0.931527900000219,P103
P103,0.31,invalid,40,exhale,correct,0.367743499999051,P103
P103,10,catch,41,exhale,correct,NA,P103
P103,-0.31,valid,42,exhale,correct,0.531047399999807,P103
P103,10,catch,43,exhale,correct,NA,P103
P103,0.31,invalid,44,exhale,correct,0.486891599997762,P103
P103,0.31,invalid,45,exhale,correct,0.462403999990784,P103
P103,0.31,valid,46,exhale,correct,0.35511370000313,P103
P103,-0.31,valid,47,exhale,correct,0.557702899997821,P103
P103,-0.31,invalid,48,exhale,correct,0.469064000004437,P103
P103,10,catch,49,exhale,correct,NA,P103
P103,-0.31,valid,50,exhale,correct,0.392387100000633,P103
P103,-0.31,valid,51,exhale,correct,0.467163900000742,P103
P103,-0.31,invalid,52,exhale,correct,0.382713800005149,P103
P103,-0.31,valid,53,exhale,correct,0.360674499999732,P103
P103,10,catch,54,exhale,correct,NA,P103
P103,0.31,invalid,55,exhale,correct,0.557541400004993,P103
P103,-0.31,valid,56,exhale,correct,0.469951300008688,P103
P103,0.31,valid,57,exhale,correct,0.366574699990451,P103
P103,-0.31,invalid,58,exhale,correct,0.39189620000252,P103
P103,0.31,invalid,59,exhale,correct,0.581801799999084,P103
P104,10,catch,0,exhale,correct,NA,P104
P104,10,catch,1,exhale,correct,NA,P104
P104,0.31,invalid,2,exhale,correct,0.353033199993661,P104
P104,0.31,invalid,3,exhale,correct,0.334227300001658,P104
P104,-0.31,valid,4,exhale,correct,0.438241800002288,P104
P104,-0.31,invalid,5,exhale,correct,0.539754500001436,P104
P104,0.31,valid,6,exhale,correct,0.306763000000501,P104
P104,-0.31,invalid,7,exhale,correct,0.377466699996148,P104
P104,-0.31,valid,8,exhale,correct,0.428650700006983,P104
P104,-0.31,invalid,9,exhale,correct,0.443786599993473,P104
P104,0.31,invalid,10,exhale,correct,0.381961999999476,P104
P104,-0.31,invalid,11,exhale,correct,0.37974530000065,P104
P104,0.31,valid,12,exhale,correct,0.384472400008235,P104
P104,10,catch,13,exhale,correct,NA,P104
P104,-0.31,invalid,14,exhale,correct,0.438684599997941,P104
P104,-0.31,valid,15,exhale,correct,0.341436300004716,P104
P104,10,catch,16,exhale,correct,NA,P104
P104,10,catch,17,exhale,correct,NA,P104
P104,0.31,invalid,18,exhale,correct,0.346647699989262,P104
P104,10,catch,19,exhale,correct,NA,P104
P104,0.31,invalid,20,exhale,correct,0.372633600010886,P104
P104,-0.31,valid,21,exhale,correct,0.373389099986525,P104
P104,0.31,valid,22,exhale,correct,0.357401600005687,P104
P104,-0.31,invalid,23,exhale,correct,0.353863399999682,P104
P104,0.31,valid,24,exhale,correct,0.345203799995943,P104
P104,-0.31,invalid,25,exhale,correct,0.667029399992316,P104
P104,-0.31,valid,26,exhale,correct,0.400363700013258,P104
P104,0.31,valid,27,exhale,correct,0.361429199998383,P104
P104,10,catch,28,exhale,correct,NA,P104
P104,0.31,valid,29,exhale,correct,0.438728799999808,P104
P104,0.31,valid,30,exhale,correct,0.379265399998985,P104
P104,-0.31,valid,31,exhale,correct,0.413015800004359,P104
P104,0.31,valid,32,exhale,correct,0.407135500005097,P104
P104,-0.31,invalid,33,exhale,correct,0.341421300006914,P104
P104,10,catch,34,exhale,correct,NA,P104
P104,0.31,valid,35,exhale,correct,0.535293500011903,P104
P104,-0.31,invalid,36,exhale,correct,0.69179539999458906,P104
P104,0.31,invalid,37,exhale,correct,0.369818999999552,P104
P104,0.31,invalid,38,exhale,correct,0.344180799991591,P104
P104,0.31,valid,39,exhale,correct,0.357757500009029,P104
P104,0.31,invalid,40,exhale,correct,0.377629800001159,P104
P104,10,catch,41,exhale,correct,NA,P104
P104,-0.31,valid,42,exhale,correct,0.399982000002638,P104
P104,10,catch,43,exhale,correct,NA,P104
P104,0.31,invalid,44,exhale,correct,0.414386200005538,P104
P104,0.31,invalid,45,exhale,correct,0.399045600002864,P104
P104,0.31,valid,46,exhale,correct,0.364153799993801,P104
P104,-0.31,valid,47,exhale,correct,0.369521100001293,P104
P104,-0.31,invalid,48,exhale,correct,0.41125699999975,P104
P104,10,catch,49,exhale,correct,NA,P104
P104,-0.31,valid,50,exhale,correct,0.32405560000916,P104
P104,-0.31,valid,51,exhale,correct,0.343321199994534,P104
P104,-0.31,invalid,52,exhale,correct,0.407107499995618,P104
P104,-0.31,valid,53,exhale,correct,0.416076299996348,P104
P104,10,catch,54,exhale,correct,NA,P104
P104,0.31,invalid,55,exhale,correct,0.398021200002404,P104
P104,-0.31,valid,56,exhale,correct,0.377902899999754,P104
P104,0.31,valid,57,exhale,correct,0.371675899994443,P104
P104,-0.31,invalid,58,exhale,correct,0.333876399992732,P104
P104,0.31,invalid,59,exhale,correct,0.304247799998848,P104
P104,10,catch,0,inhale,correct,NA,P104
P104,10,catch,1,inhale,correct,NA,P104
P104,0.31,invalid,2,inhale,correct,0.412443299996085,P104
P104,0.31,invalid,3,inhale,correct,0.439228100003675,P104
P104,-0.31,valid,4,inhale,correct,0.409692600005656,P104
P104,-0.31,invalid,5,inhale,correct,0.338136899998062,P104
P104,0.31,valid,6,inhale,correct,0.316289900001721,P104
P104,-0.31,invalid,7,inhale,correct,0.322957800002769,P104
P104,-0.31,valid,8,inhale,correct,0.302758299993002,P104
P104,-0.31,invalid,9,inhale,correct,0.277212600005441,P104
P104,0.31,invalid,10,inhale,correct,0.280165699994541,P104
P104,-0.31,invalid,11,inhale,correct,0.489623500005109,P104
P104,0.31,valid,12,inhale,correct,0.339928699992015,P104
P104,10,catch,13,inhale,correct,NA,P104
P104,-0.31,invalid,14,inhale,correct,0.413806000011391,P104
P104,-0.31,valid,15,inhale,correct,0.381558699999005,P104
P104,10,catch,16,inhale,correct,NA,P104
P104,10,catch,17,inhale,correct,NA,P104
P104,0.31,invalid,18,inhale,correct,0.397140899993246,P104
P104,10,catch,19,inhale,correct,NA,P104
P104,0.31,invalid,20,inhale,correct,0.383293399994727,P104
P104,-0.31,valid,21,inhale,correct,0.374255300004734,P104
P104,0.31,valid,22,inhale,correct,0.356918000004953,P104
P104,-0.31,invalid,23,inhale,correct,0.469955199994729,P104
P104,0.31,valid,24,inhale,correct,0.36356440000236,P104
P104,-0.31,invalid,25,inhale,correct,0.355066600008286,P104
P104,-0.31,valid,26,inhale,correct,0.315859499998624,P104
P104,0.31,valid,27,inhale,correct,0.349285399992368,P104
P104,10,catch,28,inhale,correct,NA,P104
P104,0.31,valid,29,inhale,correct,0.344003499994869,P104
P104,0.31,valid,30,inhale,correct,0.355687399991439,P104
P104,-0.31,valid,31,inhale,correct,0.337161099989316,P104
P104,0.31,valid,32,inhale,correct,0.276603099991917,P104
P104,-0.31,invalid,33,inhale,correct,0.289196300000185,P104
P104,10,catch,34,inhale,correct,NA,P104
P104,0.31,valid,35,inhale,correct,0.497276699999929,P104
P104,-0.31,invalid,36,inhale,correct,0.357947800002876,P104
P104,0.31,invalid,37,inhale,correct,0.33754300000146,P104
P104,0.31,invalid,38,inhale,correct,0.374909699996351,P104
P104,0.31,valid,39,inhale,correct,0.440074800004368,P104
P104,0.31,invalid,40,inhale,correct,0.381111900001997,P104
P104,10,catch,41,inhale,correct,NA,P104
P104,-0.31,valid,42,inhale,correct,0.318685199992615,P104
P104,10,catch,43,inhale,correct,NA,P104
P104,0.31,invalid,44,inhale,correct,0.36884550000832,P104
P104,0.31,invalid,45,inhale,correct,0.393258199997945,P104
P104,0.31,valid,46,inhale,correct,0.409825499998988,P104
P104,-0.31,valid,47,inhale,correct,0.325845400002436,P104
P104,-0.31,invalid,48,inhale,correct,0.242952999993577,P104
P104,10,catch,49,inhale,correct,NA,P104
P104,-0.31,valid,50,inhale,correct,0.325436400002218,P104
P104,-0.31,valid,51,inhale,correct,0.435852499998873,P104
P104,-0.31,invalid,52,inhale,correct,0.370822299999418,P104
P104,-0.31,valid,53,inhale,correct,0.38514589999977,P104
P104,10,catch,54,inhale,correct,NA,P104
P104,0.31,invalid,55,inhale,correct,0.417361200001324,P104
P104,-0.31,valid,56,inhale,correct,0.400541300012264,P104
P104,0.31,valid,57,inhale,correct,0.427443599997787,P104
P104,-0.31,invalid,58,inhale,correct,0.400170699998853,P104
P104,0.31,invalid,59,inhale,correct,0.337361999991117,P104
P105,10,catch,0,inhale,correct,NA,P105
P105,10,catch,1,inhale,correct,NA,P105
P105,0.31,invalid,2,inhale,correct,0.382391299999995,P105
P105,0.31,invalid,3,inhale,correct,0.397815799999989,P105
P105,-0.31,valid,4,inhale,correct,0.312602899999945,P105
P105,-0.31,invalid,5,inhale,correct,0.37082300000003,P105
P105,0.31,valid,6,inhale,correct,0.393876400000011,P105
P105,-0.31,invalid,7,inhale,correct,0.329624799999976,P105
P105,-0.31,valid,8,inhale,correct,0.269822900000008,P105
P105,-0.31,invalid,9,inhale,correct,0.381982099999959,P105
P105,0.31,invalid,10,inhale,correct,0.399106599999982,P105
P105,-0.31,invalid,11,inhale,correct,0.368304999999964,P105
P105,0.31,valid,12,inhale,correct,0.2611493,P105
P105,10,catch,13,inhale,incorrect,0.274085100000036,P105
P105,-0.31,invalid,14,inhale,correct,0.406454999999994,P105
P105,-0.31,valid,15,inhale,correct,0.408845299999996,P105
P105,10,catch,16,inhale,correct,NA,P105
P105,10,catch,17,inhale,correct,NA,P105
P105,0.31,invalid,18,inhale,correct,0.449341800000013,P105
P105,10,catch,19,inhale,correct,NA,P105
P105,0.31,invalid,20,inhale,correct,0.381155199999966,P105
P105,-0.31,valid,21,inhale,correct,0.357841399999984,P105
P105,0.31,valid,22,inhale,correct,0.395310999999992,P105
P105,-0.31,invalid,23,inhale,correct,0.35936380000004,P105
P105,0.31,valid,24,inhale,correct,0.361333900000091,P105
P105,-0.31,invalid,25,inhale,correct,0.613339200000041,P105
P105,-0.31,valid,26,inhale,correct,0.361994400000071,P105
P105,0.31,valid,27,inhale,correct,0.301966099999959,P105
P105,10,catch,28,inhale,correct,NA,P105
P105,0.31,valid,29,inhale,correct,0.335461799999962,P105
P105,0.31,valid,30,inhale,correct,0.346296800000005,P105
P105,-0.31,valid,31,inhale,correct,0.409111399999915,P105
P105,0.31,valid,32,inhale,correct,0.365987300000029,P105
P105,-0.31,invalid,33,inhale,correct,0.331783500000029,P105
P105,10,catch,34,inhale,correct,NA,P105
P105,0.31,valid,35,inhale,correct,0.443518199999971,P105
P105,-0.31,invalid,36,inhale,correct,0.401517300000023,P105
P105,0.31,invalid,37,inhale,correct,0.420609799999966,P105
P105,0.31,invalid,38,inhale,correct,0.383354300000065,P105
P105,0.31,valid,39,inhale,correct,0.337234200000012,P105
P105,0.31,invalid,40,inhale,correct,0.318291900000077,P105
P105,10,catch,41,inhale,correct,NA,P105
P105,-0.31,valid,42,inhale,correct,0.379330299999992,P105
P105,10,catch,43,inhale,incorrect,0.319034999999985,P105
P105,0.31,invalid,44,inhale,correct,0.389948200000049,P105
P105,0.31,invalid,45,inhale,correct,0.712801600000034,P105
P105,0.31,valid,46,inhale,correct,0.361104899999987,P105
P105,-0.31,valid,47,inhale,correct,0.451912099999959,P105
P105,-0.31,invalid,48,inhale,correct,0.482741400000009,P105
P105,10,catch,49,inhale,correct,NA,P105
P105,-0.31,valid,50,inhale,correct,0.429356100000064,P105
P105,-0.31,valid,51,inhale,correct,0.416308100000037,P105
P105,-0.31,invalid,52,inhale,correct,0.383311899999967,P105
P105,-0.31,valid,53,inhale,correct,0.528563799999915,P105
P105,10,catch,54,inhale,correct,NA,P105
P105,0.31,invalid,55,inhale,correct,0.418160499999999,P105
P105,-0.31,valid,56,inhale,correct,0.4429619,P105
P105,0.31,valid,57,inhale,correct,0.350954000000002,P105
P105,-0.31,invalid,58,inhale,correct,0.517054099999996,P105
P105,0.31,invalid,59,inhale,correct,0.350726699999996,P105
P105,10,catch,0,exhale,correct,NA,P105
P105,10,catch,1,exhale,correct,NA,P105
P105,0.31,invalid,2,exhale,correct,0.370873099999926,P105
P105,0.31,invalid,3,exhale,correct,0.312077299999942,P105
P105,-0.31,valid,4,exhale,correct,0.520000099999947,P105
P105,-0.31,invalid,5,exhale,correct,0.302597300000002,P105
P105,0.31,valid,6,exhale,correct,0.387753100000054,P105
P105,-0.31,invalid,7,exhale,correct,0.285278400000038,P105
P105,-0.31,valid,8,exhale,correct,0.327858200000037,P105
P105,-0.31,invalid,9,exhale,correct,0.284845099999984,P105
P105,0.31,invalid,10,exhale,correct,0.348084800000038,P105
P105,-0.31,invalid,11,exhale,correct,0.424579900000026,P105
P105,0.31,valid,12,exhale,correct,0.354396700000052,P105
P105,10,catch,13,exhale,incorrect,0.297599600000012,P105
P105,-0.31,invalid,14,exhale,correct,0.396003899999982,P105
P105,-0.31,valid,15,exhale,correct,0.390679099999943,P105
P105,10,catch,16,exhale,correct,NA,P105
P105,10,catch,17,exhale,correct,NA,P105
P105,0.31,invalid,18,exhale,correct,0.453579900000022,P105
P105,10,catch,19,exhale,correct,NA,P105
P105,0.31,invalid,20,exhale,correct,0.425105200000075,P105
P105,-0.31,valid,21,exhale,correct,0.399054899999896,P105
P105,0.31,valid,22,exhale,correct,0.518522899999994,P105
P105,-0.31,invalid,23,exhale,correct,0.351647500000013,P105
P105,0.31,valid,24,exhale,correct,0.39490760000001,P105
P105,-0.31,invalid,25,exhale,correct,0.375033600000052,P105
P105,-0.31,valid,26,exhale,correct,0.378736799999956,P105
P105,0.31,valid,27,exhale,correct,0.425618400000076,P105
P105,10,catch,28,exhale,incorrect,0.267759500000011,P105
P105,0.31,valid,29,exhale,correct,0.493823899999938,P105
P105,0.31,valid,30,exhale,correct,0.420340199999941,P105
P105,-0.31,valid,31,exhale,correct,0.49662289999992,P105
P105,0.31,valid,32,exhale,correct,0.580273799999986,P105
P105,-0.31,invalid,33,exhale,correct,0.54473459999997,P105
P105,10,catch,34,exhale,correct,NA,P105
P105,0.31,valid,35,exhale,correct,0.367374899999959,P105
P105,-0.31,invalid,36,exhale,correct,0.358319899999969,P105
P105,0.31,invalid,37,exhale,correct,0.330125299999963,P105
P105,0.31,invalid,38,exhale,correct,0.322135500000059,P105
P105,0.31,valid,39,exhale,correct,0.360012899999901,P105
P105,0.31,invalid,40,exhale,correct,0.347811800000045,P105
P105,10,catch,41,exhale,incorrect,0.378585499999872,P105
P105,-0.31,valid,42,exhale,correct,0.391299299999901,P105
P105,10,catch,43,exhale,correct,NA,P105
P105,0.31,invalid,44,exhale,correct,0.331891699999915,P105
P105,0.31,invalid,45,exhale,correct,0.5511391,P105
P105,0.31,valid,46,exhale,correct,0.434655999999904,P105
P105,-0.31,valid,47,exhale,correct,0.384363200000053,P105
P105,-0.31,invalid,48,exhale,correct,0.433829099999912,P105
P105,10,catch,49,exhale,correct,NA,P105
P105,-0.31,valid,50,exhale,correct,0.650615499999958,P105
P105,-0.31,valid,51,exhale,correct,0.436411299999918,P105
P105,-0.31,invalid,52,exhale,correct,0.357785299999932,P105
P105,-0.31,valid,53,exhale,correct,0.314211699999987,P105
P105,10,catch,54,exhale,correct,NA,P105
P105,0.31,invalid,55,exhale,correct,0.41804460000003,P105
P105,-0.31,valid,56,exhale,correct,0.365712300000041,P105
P105,0.31,valid,57,exhale,correct,0.397882100000061,P105
P105,-0.31,invalid,58,exhale,correct,0.418454999999994,P105
P105,0.31,invalid,59,exhale,correct,0.39176550000002,P105
P106,10,catch,0,exhale,correct,NA,P106
P106,10,catch,1,exhale,correct,NA,P106
P106,0.31,invalid,2,exhale,correct,0.367956800000684,P106
P106,0.31,invalid,3,exhale,correct,0.345050399999309,P106
P106,-0.31,valid,4,exhale,correct,0.352023299999928,P106
P106,-0.31,invalid,5,exhale,correct,0.372837999999319,P106
P106,0.31,valid,6,exhale,correct,0.311456499999622,P106
P106,-0.31,invalid,7,exhale,correct,0.347529899999245,P106
P106,-0.31,valid,8,exhale,correct,0.379046300000482,P106
P106,-0.31,invalid,9,exhale,correct,0.380278999999973,P106
P106,0.31,invalid,10,exhale,correct,0.505270999999993,P106
P106,-0.31,invalid,11,exhale,correct,0.471810600000026,P106
P106,0.31,valid,12,exhale,correct,0.344045599999845,P106
P106,10,catch,13,exhale,correct,NA,P106
P106,-0.31,invalid,14,exhale,correct,0.379912200000035,P106
P106,-0.31,valid,15,exhale,correct,0.376870399999461,P106
P106,10,catch,16,exhale,correct,NA,P106
P106,10,catch,17,exhale,correct,NA,P106
P106,0.31,invalid,18,exhale,correct,0.399368999999751,P106
P106,10,catch,19,exhale,correct,NA,P106
P106,0.31,invalid,20,exhale,correct,0.459850600000209,P106
P106,-0.31,valid,21,exhale,correct,0.457680100000289,P106
P106,0.31,valid,22,exhale,correct,0.371521200000643,P106
P106,-0.31,invalid,23,exhale,correct,0.379254399999809,P106
P106,0.31,valid,24,exhale,correct,0.312366499999371,P106
P106,-0.31,invalid,25,exhale,correct,0.411455399999795,P106
P106,-0.31,valid,26,exhale,correct,0.360456399999748,P106
P106,0.31,valid,27,exhale,correct,0.31790809999984,P106
P106,10,catch,28,exhale,correct,NA,P106
P106,0.31,valid,29,exhale,correct,0.32049779999943,P106
P106,0.31,valid,30,exhale,correct,0.404068499999994,P106
P106,-0.31,valid,31,exhale,correct,0.288006299999324,P106
P106,0.31,valid,32,exhale,correct,0.3017490000002,P106
P106,-0.31,invalid,33,exhale,correct,0.340618599999289,P106
P106,10,catch,34,exhale,correct,NA,P106
P106,0.31,valid,35,exhale,correct,0.356898000000001,P106
P106,-0.31,invalid,36,exhale,correct,0.307471500000247,P106
P106,0.31,invalid,37,exhale,correct,0.30706629999986,P106
P106,0.31,invalid,38,exhale,correct,0.357311800000389,P106
P106,0.31,valid,39,exhale,correct,0.345577300000514,P106
P106,0.31,invalid,40,exhale,correct,0.379840699999477,P106
P106,10,catch,41,exhale,correct,NA,P106
P106,-0.31,valid,42,exhale,correct,0.350522400000045,P106
P106,10,catch,43,exhale,correct,NA,P106
P106,0.31,invalid,44,exhale,correct,0.358318000000509,P106
P106,0.31,invalid,45,exhale,correct,0.377684000000045,P106
P106,0.31,valid,46,exhale,correct,0.296135700000377,P106
P106,-0.31,valid,47,exhale,correct,0.393724300000031,P106
P106,-0.31,invalid,48,exhale,correct,0.263430900000458,P106
P106,10,catch,49,exhale,correct,NA,P106
P106,-0.31,valid,50,exhale,correct,0.369302400000379,P106
P106,-0.31,valid,51,exhale,correct,0.278878400000394,P106
P106,-0.31,invalid,52,exhale,correct,0.295866299999943,P106
P106,-0.31,valid,53,exhale,correct,0.305667499999799,P106
P106,10,catch,54,exhale,correct,NA,P106
P106,0.31,invalid,55,exhale,correct,0.327612500000214,P106
P106,-0.31,valid,56,exhale,correct,0.707648499999777,P106
P106,0.31,valid,57,exhale,correct,0.444170400000075,P106
P106,-0.31,invalid,58,exhale,correct,0.261108900000181,P106
P106,0.31,invalid,59,exhale,correct,0.294046400000298,P106
P106,10,catch,0,inhale,correct,NA,P106
P106,10,catch,1,inhale,correct,NA,P106
P106,0.31,invalid,2,inhale,correct,0.525072100000216,P106
P106,0.31,invalid,3,inhale,correct,0.384293600000092,P106
P106,-0.31,valid,4,inhale,correct,0.370479700000033,P106
P106,-0.31,invalid,5,inhale,correct,0.287890900000093,P106
P106,0.31,valid,6,inhale,correct,0.305176400000164,P106
P106,-0.31,invalid,7,inhale,correct,0.389284200000475,P106
P106,-0.31,valid,8,inhale,correct,0.309003499999562,P106
P106,-0.31,invalid,9,inhale,correct,0.398245400000633,P106
P106,0.31,invalid,10,inhale,correct,0.443532100000084,P106
P106,-0.31,invalid,11,inhale,correct,1.40096050000011,P106
P106,0.31,valid,12,inhale,correct,0.332501500000035,P106
P106,10,catch,13,inhale,incorrect,0.320506499999283,P106
P106,-0.31,invalid,14,inhale,correct,0.374242500000037,P106
P106,-0.31,valid,15,inhale,correct,0.708020099999885,P106
P106,10,catch,16,inhale,correct,NA,P106
P106,10,catch,17,inhale,correct,NA,P106
P106,0.31,invalid,18,inhale,correct,0.656540900000437,P106
P106,10,catch,19,inhale,correct,NA,P106
P106,0.31,invalid,20,inhale,correct,0.473718599999302,P106
P106,-0.31,valid,21,inhale,correct,0.408985199999734,P106
P106,0.31,valid,22,inhale,correct,0.378278399999544,P106
P106,-0.31,invalid,23,inhale,correct,0.377493900000445,P106
P106,0.31,valid,24,inhale,correct,0.384483599999839,P106
P106,-0.31,invalid,25,inhale,correct,0.362154500000543,P106
P106,-0.31,valid,26,inhale,correct,0.378407899999729,P106
P106,0.31,valid,27,inhale,correct,0.379309699999794,P106
P106,10,catch,28,inhale,correct,NA,P106
P106,0.31,valid,29,inhale,correct,0.334013900000173,P106
P106,0.31,valid,30,inhale,correct,0.440976699999737,P106
P106,-0.31,valid,31,inhale,correct,0.300552199999402,P106
P106,0.31,valid,32,inhale,correct,0.385459799999808,P106
P106,-0.31,invalid,33,inhale,correct,0.35354020000068,P106
P106,10,catch,34,inhale,incorrect,0.323572500000409,P106
P106,0.31,valid,35,inhale,correct,0.353196699999899,P106
P106,-0.31,invalid,36,inhale,correct,0.308051699999851,P106
P106,0.31,invalid,37,inhale,correct,0.320820100000674,P106
P106,0.31,invalid,38,inhale,correct,0.396091000000524,P106
P106,0.31,valid,39,inhale,correct,0.400574400000551,P106
P106,0.31,invalid,40,inhale,correct,0.443431799999416,P106
P106,10,catch,41,inhale,correct,NA,P106
P106,-0.31,valid,42,inhale,correct,0.707502899999781,P106
P106,10,catch,43,inhale,incorrect,0.400979000000007,P106
P106,0.31,invalid,44,inhale,correct,0.357217499999933,P106
P106,0.31,invalid,45,inhale,correct,0.321663899999294,P106
P106,0.31,valid,46,inhale,correct,0.429324499999893,P106
P106,-0.31,valid,47,inhale,correct,0.284824800000024,P106
P106,-0.31,invalid,48,inhale,correct,0.400093500000366,P106
P106,10,catch,49,inhale,correct,NA,P106
P106,-0.31,valid,50,inhale,correct,0.389627599999585,P106
P106,-0.31,valid,51,inhale,correct,0.308916599999975,P106
P106,-0.31,invalid,52,inhale,correct,0.595264399999905,P106
P106,-0.31,valid,53,inhale,correct,0.443862299999637,P106
P106,10,catch,54,inhale,correct,NA,P106
P106,0.31,invalid,55,inhale,correct,0.452681900000243,P106
P106,-0.31,valid,56,inhale,correct,0.33366070000011,P106
P106,0.31,valid,57,inhale,correct,0.573028599999816,P106
P106,-0.31,invalid,58,inhale,correct,0.38429989999986,P106
P106,0.31,invalid,59,inhale,correct,0.501911800000016,P106
P107,10,catch,0,inhale,incorrect,0.306197100000645,P107
P107,10,catch,1,inhale,correct,NA,P107
P107,0.31,invalid,2,inhale,correct,0.413318400000207,P107
P107,0.31,invalid,3,inhale,correct,0.337436400001025,P107
P107,-0.31,valid,4,inhale,correct,0.403493400001025,P107
P107,-0.31,invalid,5,inhale,correct,0.326596099999733,P107
P107,0.31,valid,6,inhale,correct,0.49381859999994,P107
P107,-0.31,invalid,7,inhale,correct,0.455468899999687,P107
P107,-0.31,valid,8,inhale,correct,0.361313899999004,P107
P107,-0.31,invalid,9,inhale,correct,0.510624599999574,P107
P107,0.31,invalid,10,inhale,correct,0.314389999999548,P107
P107,-0.31,invalid,11,inhale,correct,0.276032499999928,P107
P107,0.31,valid,12,inhale,correct,0.446597000000111,P107
P107,10,catch,13,inhale,correct,NA,P107
P107,-0.31,invalid,14,inhale,correct,0.407625200001348,P107
P107,-0.31,valid,15,inhale,correct,0.982616699999198,P107
P107,10,catch,16,inhale,correct,NA,P107
P107,10,catch,17,inhale,correct,NA,P107
P107,0.31,invalid,18,inhale,correct,0.481745600000067,P107
P107,10,catch,19,inhale,correct,NA,P107
P107,0.31,invalid,20,inhale,correct,0.35053969999899,P107
P107,-0.31,valid,21,inhale,correct,0.389673900001071,P107
P107,0.31,valid,22,inhale,correct,0.32013249999909,P107
P107,-0.31,invalid,23,inhale,correct,0.366183900001488,P107
P107,0.31,valid,24,inhale,correct,0.474117400000978,P107
P107,-0.31,invalid,25,inhale,correct,0.337392999999793,P107
P107,-0.31,valid,26,inhale,correct,0.304319899998518,P107
P107,0.31,valid,27,inhale,correct,0.437918300000092,P107
P107,10,catch,28,inhale,correct,NA,P107
P107,0.31,valid,29,inhale,correct,0.434458899999299,P107
P107,0.31,valid,30,inhale,correct,0.451394400000936,P107
P107,-0.31,valid,31,inhale,correct,0.478624200000922,P107
P107,0.31,valid,32,inhale,correct,0.33007920000091,P107
P107,-0.31,invalid,33,inhale,correct,0.343199400000231,P107
P107,10,catch,34,inhale,correct,NA,P107
P107,0.31,valid,35,inhale,correct,0.376026699999784,P107
P107,-0.31,invalid,36,inhale,correct,0.400626000000557,P107
P107,0.31,invalid,37,inhale,correct,0.336409699999422,P107
P107,0.31,invalid,38,inhale,correct,0.434163800000533,P107
P107,0.31,valid,39,inhale,correct,0.337317899999107,P107
P107,0.31,invalid,40,inhale,correct,0.415351899999223,P107
P107,10,catch,41,inhale,correct,NA,P107
P107,-0.31,valid,42,inhale,correct,0.397335899999234,P107
P107,10,catch,43,inhale,correct,NA,P107
P107,0.31,invalid,44,inhale,correct,0.365129600000728,P107
P107,0.31,invalid,45,inhale,correct,0.343438399999286,P107
P107,0.31,valid,46,inhale,correct,0.352021500000774,P107
P107,-0.31,valid,47,inhale,correct,0.498539700000038,P107
P107,-0.31,invalid,48,inhale,correct,0.457002999999531,P107
P107,10,catch,49,inhale,correct,NA,P107
P107,-0.31,valid,50,inhale,correct,0.406905100000586,P107
P107,-0.31,valid,51,inhale,correct,0.481328300000314,P107
P107,-0.31,invalid,52,inhale,correct,0.500239700000748,P107
P107,-0.31,valid,53,inhale,correct,0.311228399999891,P107
P107,10,catch,54,inhale,correct,NA,P107
P107,0.31,invalid,55,inhale,correct,0.384654000001319,P107
P107,-0.31,valid,56,inhale,correct,0.412738400000308,P107
P107,0.31,valid,57,inhale,correct,0.517703700001221,P107
P107,-0.31,invalid,58,inhale,correct,0.393933699999252,P107
P107,0.31,invalid,59,inhale,correct,0.333100899999408,P107
P107,10,catch,0,exhale,correct,NA,P107
P107,10,catch,1,exhale,incorrect,0.325666700000511,P107
P107,0.31,invalid,2,exhale,correct,0.489324599999236,P107
P107,0.31,invalid,3,exhale,correct,0.38905960000011,P107
P107,-0.31,valid,4,exhale,correct,0.479602800000066,P107
P107,-0.31,invalid,5,exhale,correct,0.412549599999693,P107
P107,0.31,valid,6,exhale,correct,0.410558700001275,P107
P107,-0.31,invalid,7,exhale,correct,0.375960900000791,P107
P107,-0.31,valid,8,exhale,correct,0.338423700000931,P107
P107,-0.31,invalid,9,exhale,correct,0.360827000000427,P107
P107,0.31,invalid,10,exhale,correct,0.342279899999994,P107
P107,-0.31,invalid,11,exhale,correct,0.331221200000073,P107
P107,0.31,valid,12,exhale,correct,0.253177099999448,P107
P107,10,catch,13,exhale,correct,NA,P107
P107,-0.31,invalid,14,exhale,correct,0.397279000000708,P107
P107,-0.31,valid,15,exhale,correct,0.37412889999905,P107
P107,10,catch,16,exhale,correct,NA,P107
P107,10,catch,17,exhale,correct,NA,P107
P107,0.31,invalid,18,exhale,correct,0.400679500000479,P107
P107,10,catch,19,exhale,correct,NA,P107
P107,0.31,invalid,20,exhale,correct,0.493472199999815,P107
P107,-0.31,valid,21,exhale,correct,0.371584200000143,P107
P107,0.31,valid,22,exhale,correct,0.618501099999776,P107
P107,-0.31,invalid,23,exhale,correct,0.453552099999797,P107
P107,0.31,valid,24,exhale,correct,0.370343199998388,P107
P107,-0.31,invalid,25,exhale,correct,0.453611099999762,P107
P107,-0.31,valid,26,exhale,correct,0.360490799999752,P107
P107,0.31,valid,27,exhale,correct,0.371957100000145,P107
P107,10,catch,28,exhale,correct,NA,P107
P107,0.31,valid,29,exhale,correct,0.373236199999155,P107
P107,0.31,valid,30,exhale,correct,0.398037499999191,P107
P107,-0.31,valid,31,exhale,correct,0.404998199999682,P107
P107,0.31,valid,32,exhale,correct,0.352671100001317,P107
P107,-0.31,invalid,33,exhale,correct,0.441290499999013,P107
P107,10,catch,34,exhale,correct,NA,P107
P107,0.31,valid,35,exhale,correct,0.375651299998935,P107
P107,-0.31,invalid,36,exhale,correct,0.538052399999287,P107
P107,0.31,invalid,37,exhale,correct,0.347822300000189,P107
P107,0.31,invalid,38,exhale,correct,0.408728200000041,P107
P107,0.31,valid,39,exhale,correct,0.341463900000235,P107
P107,0.31,invalid,40,exhale,correct,0.466174299999693,P107
P107,10,catch,41,exhale,correct,NA,P107
P107,-0.31,valid,42,exhale,correct,0.314022600001408,P107
P107,10,catch,43,exhale,incorrect,0.297555699999066,P107
P107,0.31,invalid,44,exhale,correct,0.395972500000425,P107
P107,0.31,invalid,45,exhale,correct,0.366534200000388,P107
P107,0.31,valid,46,exhale,correct,0.434495600000446,P107
P107,-0.31,valid,47,exhale,correct,0.427587000000131,P107
P107,-0.31,invalid,48,exhale,correct,0.454242299998441,P107
P107,10,catch,49,exhale,correct,NA,P107
P107,-0.31,valid,50,exhale,correct,0.319407500001034,P107
P107,-0.31,valid,51,exhale,correct,0.399230700000771,P107
P107,-0.31,invalid,52,exhale,correct,0.379599899999448,P107
P107,-0.31,valid,53,exhale,correct,0.358595200001218,P107
P107,10,catch,54,exhale,correct,NA,P107
P107,0.31,invalid,55,exhale,correct,0.321326600000248,P107
P107,-0.31,valid,56,exhale,correct,0.382741499999611,P107
P107,0.31,valid,57,exhale,correct,0.338522199999716,P107
P107,-0.31,invalid,58,exhale,correct,0.347219700001006,P107
P107,0.31,invalid,59,exhale,correct,0.390173399999185,P107
P108,10,catch,0,exhale,correct,NA,P108
P108,10,catch,1,exhale,correct,NA,P108
P108,0.31,invalid,2,exhale,correct,0.347138900000573,P108
P108,0.31,invalid,3,exhale,correct,0.60476749999907,P108
P108,-0.31,valid,4,exhale,correct,0.24451819999922,P108
P108,-0.31,invalid,5,exhale,correct,0.243947900000421,P108
P108,0.31,valid,6,exhale,correct,0.431349700000283,P108
P108,-0.31,invalid,7,exhale,correct,0.27868909999961,P108
P108,-0.31,valid,8,exhale,correct,0.231655799998407,P108
P108,-0.31,invalid,9,exhale,correct,0.142686600000161,P108
P108,0.31,invalid,10,exhale,correct,0.336239000000205,P108
P108,-0.31,invalid,11,exhale,correct,0.314556299999822,P108
P108,0.31,valid,12,exhale,correct,0.258536899998944,P108
P108,10,catch,13,exhale,correct,NA,P108
P108,-0.31,invalid,14,exhale,correct,0.32026229999974,P108
P108,-0.31,valid,15,exhale,correct,0.369301999999152,P108
P108,10,catch,16,exhale,incorrect,0.349974099999599,P108
P108,10,catch,17,exhale,correct,NA,P108
P108,0.31,invalid,18,exhale,correct,0.473099599999841,P108
P108,10,catch,19,exhale,correct,NA,P108
P108,0.31,invalid,20,exhale,correct,0.38495679999869,P108
P108,-0.31,valid,21,exhale,correct,0.398171400000138,P108
P108,0.31,valid,22,exhale,correct,0.283754999998564,P108
P108,-0.31,invalid,23,exhale,correct,0.305924199999936,P108
P108,0.31,valid,24,exhale,correct,0.323344499998711,P108
P108,-0.31,invalid,25,exhale,correct,0.440774999999121,P108
P108,-0.31,valid,26,exhale,correct,1.72295300000042,P108
P108,0.31,valid,27,exhale,correct,0.316933199999767,P108
P108,10,catch,28,exhale,incorrect,0.333966300000611,P108
P108,0.31,valid,29,exhale,correct,0.424884899999597,P108
P108,0.31,valid,30,exhale,correct,0.442144500000722,P108
P108,-0.31,valid,31,exhale,correct,0.406422100000782,P108
P108,0.31,valid,32,exhale,correct,0.234820199999376,P108
P108,-0.31,invalid,33,exhale,correct,0.434395700000096,P108
P108,10,catch,34,exhale,incorrect,0.321287599999778,P108
P108,0.31,valid,35,exhale,correct,0.578332000000955,P108
P108,-0.31,invalid,36,exhale,correct,0.391517800000656,P108
P108,0.31,invalid,37,exhale,correct,0.500529699998879,P108
P108,0.31,invalid,38,exhale,correct,0.336863200000153,P108
P108,0.31,valid,39,exhale,correct,0.285839100000885,P108
P108,0.31,invalid,40,exhale,correct,0.35582389999945,P108
P108,10,catch,41,exhale,correct,NA,P108
P108,-0.31,valid,42,exhale,correct,0.362722199999553,P108
P108,10,catch,43,exhale,correct,NA,P108
P108,0.31,invalid,44,exhale,correct,0.398885299999165,P108
P108,0.31,invalid,45,exhale,correct,0.419036900000719,P108
P108,0.31,valid,46,exhale,correct,0.315719599999284,P108
P108,-0.31,valid,47,exhale,correct,0.348810100000264,P108
P108,-0.31,invalid,48,exhale,correct,0.774160799999663,P108
P108,10,catch,49,exhale,incorrect,0.358879499999603,P108
P108,-0.31,valid,50,exhale,correct,0.402340300001015,P108
P108,-0.31,valid,51,exhale,correct,0.377226700000392,P108
P108,-0.31,invalid,52,exhale,correct,0.398649999999179,P108
P108,-0.31,valid,53,exhale,correct,0.53016670000033606,P108
P108,10,catch,54,exhale,correct,NA,P108
P108,0.31,invalid,55,exhale,correct,0.487091399998462,P108
P108,-0.31,valid,56,exhale,correct,0.359024000001227,P108
P108,0.31,valid,57,exhale,correct,0.391518700000233,P108
P108,-0.31,invalid,58,exhale,correct,0.341739899999084,P108
P108,0.31,invalid,59,exhale,correct,0.338244000000486,P108
P108,10,catch,0,inhale,correct,NA,P108
P108,10,catch,1,inhale,correct,NA,P108
P108,0.31,invalid,2,inhale,correct,0.492861500000799,P108
P108,0.31,invalid,3,inhale,correct,0.446265800001129,P108
P108,-0.31,valid,4,inhale,correct,0.317582899999252,P108
P108,-0.31,invalid,5,inhale,correct,0.301276800000778,P108
P108,0.31,valid,6,inhale,correct,0.269121199999063,P108
P108,-0.31,invalid,7,inhale,correct,0.276324299997214,P108
P108,-0.31,valid,8,inhale,correct,0.368449300000066,P108
P108,-0.31,invalid,9,inhale,correct,0.307923600001232,P108
P108,0.31,invalid,10,inhale,correct,0.327417300002708,P108
P108,-0.31,invalid,11,inhale,correct,0.238712599999417,P108
P108,0.31,valid,12,inhale,correct,0.290802200001053,P108
P108,10,catch,13,inhale,correct,NA,P108
P108,-0.31,invalid,14,inhale,correct,0.457645300000877,P108
P108,-0.31,valid,15,inhale,correct,0.37779109999974,P108
P108,10,catch,16,inhale,incorrect,0.336602100000164,P108
P108,10,catch,17,inhale,correct,NA,P108
P108,0.31,invalid,18,inhale,correct,0.518818000000465,P108
P108,10,catch,19,inhale,correct,NA,P108
P108,0.31,invalid,20,inhale,correct,0.41262579999966,P108
P108,-0.31,valid,21,inhale,correct,0.536184600001434,P108
P108,0.31,valid,22,inhale,correct,0.319087899999431,P108
P108,-0.31,invalid,23,inhale,correct,0.329561400001694,P108
P108,0.31,valid,24,inhale,correct,0.393184699998528,P108
P108,-0.31,invalid,25,inhale,correct,0.301243599998998,P108
P108,-0.31,valid,26,inhale,correct,0.301561899999797,P108
P108,0.31,valid,27,inhale,correct,0.281467700002395,P108
P108,10,catch,28,inhale,incorrect,0.33659550000084,P108
P108,0.31,valid,29,inhale,correct,0.384534799999528,P108
P108,0.31,valid,30,inhale,correct,0.347177199997532,P108
P108,-0.31,valid,31,inhale,correct,0.318615500000305,P108
P108,0.31,valid,32,inhale,correct,0.294378899998264,P108
P108,-0.31,invalid,33,inhale,correct,0.32330759999968,P108
P108,10,catch,34,inhale,correct,NA,P108
P108,0.31,valid,35,inhale,correct,0.771350399998482,P108
P108,-0.31,invalid,36,inhale,correct,0.389722900003107,P108
P108,0.31,invalid,37,inhale,correct,0.346552700000757,P108
P108,0.31,invalid,38,inhale,correct,0.367542899999535,P108
P108,0.31,valid,39,inhale,correct,0.237389899997652,P108
P108,0.31,invalid,40,inhale,correct,0.348451599998953,P108
P108,10,catch,41,inhale,correct,NA,P108
P108,-0.31,valid,42,inhale,correct,0.304163299999345,P108
P108,10,catch,43,inhale,correct,NA,P108
P108,0.31,invalid,44,inhale,correct,0.390540799999144,P108
P108,0.31,invalid,45,inhale,correct,0.549934999999095,P108
P108,0.31,valid,46,inhale,correct,0.402733499999158,P108
P108,-0.31,valid,47,inhale,correct,0.367965000001277,P108
P108,-0.31,invalid,48,inhale,correct,0.371368200001598,P108
P108,10,catch,49,inhale,correct,NA,P108
P108,-0.31,valid,50,inhale,correct,0.319184500000119,P108
P108,-0.31,valid,51,inhale,correct,0.295395199998893,P108
P108,-0.31,invalid,52,inhale,correct,0.354999999999563,P108
P108,-0.31,valid,53,inhale,correct,0.221692200000689,P108
P108,10,catch,54,inhale,incorrect,0.3471712999999,P108
P108,0.31,invalid,55,inhale,correct,0.377174399996875,P108
P108,-0.31,valid,56,inhale,correct,0.389945500002796,P108
P108,0.31,valid,57,inhale,correct,0.271542700000282,P108
P108,-0.31,invalid,58,inhale,correct,0.297236700000212,P108
P108,0.31,invalid,59,inhale,correct,0.410950800000137,P108
P109,10,catch,0,inhale,correct,NA,P109
P109,10,catch,1,inhale,correct,NA,P109
P109,0.31,invalid,2,inhale,correct,0.387574000000313,P109
P109,0.31,invalid,3,inhale,correct,0.291969100002461,P109
P109,-0.31,valid,4,inhale,correct,0.35155069999746,P109
P109,-0.31,invalid,5,inhale,correct,0.296390299998166,P109
P109,0.31,valid,6,inhale,correct,0.311277299999347,P109
P109,-0.31,invalid,7,inhale,correct,0.28297079999902103,P109
P109,-0.31,valid,8,inhale,correct,0.381158600001072,P109
P109,-0.31,invalid,9,inhale,correct,0.340018599999894,P109
P109,0.31,invalid,10,inhale,correct,0.455348999999842,P109
P109,-0.31,invalid,11,inhale,correct,0.353171300001122,P109
P109,0.31,valid,12,inhale,correct,0.327502299998741,P109
P109,10,catch,13,inhale,incorrect,0.225931900000433,P109
P109,-0.31,invalid,14,inhale,correct,0.250537399999303,P109
P109,-0.31,valid,15,inhale,correct,0.354071099998691,P109
P109,10,catch,16,inhale,incorrect,0.273719600001641,P109
P109,10,catch,17,inhale,correct,NA,P109
P109,0.31,invalid,18,inhale,correct,0.360374299998512,P109
P109,10,catch,19,inhale,correct,NA,P109
P109,0.31,invalid,20,inhale,correct,0.392762200001016,P109
P109,-0.31,valid,21,inhale,correct,0.51241680000021,P109
P109,0.31,valid,22,inhale,correct,0.510685900000681,P109
P109,-0.31,invalid,23,inhale,correct,0.446414500001993,P109
P109,0.31,valid,24,inhale,correct,0.352378199997474,P109
P109,-0.31,invalid,25,inhale,correct,0.316594399999303,P109
P109,-0.31,valid,26,inhale,correct,0.295859499998187,P109
P109,0.31,valid,27,inhale,correct,0.312838500001817,P109
P109,10,catch,28,inhale,correct,NA,P109
P109,0.31,valid,29,inhale,correct,0.382628000003024,P109
P109,0.31,valid,30,inhale,correct,0.334306000000652,P109
P109,-0.31,valid,31,inhale,correct,0.328469700001733,P109
P109,0.31,valid,32,inhale,correct,0.537962700000207,P109
P109,-0.31,invalid,33,inhale,correct,0.385176499999943,P109
P109,10,catch,34,inhale,correct,NA,P109
P109,0.31,valid,35,inhale,correct,0.308528300000035,P109
P109,-0.31,invalid,36,inhale,correct,0.450647399997251,P109
P109,0.31,invalid,37,inhale,correct,0.489173500001925,P109
P109,0.31,invalid,38,inhale,correct,0.190560000002733,P109
P109,0.31,valid,39,inhale,correct,0.318589599999541,P109
P109,0.31,invalid,40,inhale,correct,0.302816800001892,P109
P109,10,catch,41,inhale,correct,NA,P109
P109,-0.31,valid,42,inhale,correct,0.357088199998543,P109
P109,10,catch,43,inhale,correct,NA,P109
P109,0.31,invalid,44,inhale,correct,0.364038899999287,P109
P109,0.31,invalid,45,inhale,correct,0.49622090000048,P109
P109,0.31,valid,46,inhale,correct,0.379798700003448,P109
P109,-0.31,valid,47,inhale,correct,0.466574500002025,P109
P109,-0.31,invalid,48,inhale,correct,0.283912499999133,P109
P109,10,catch,49,inhale,incorrect,0.184255299998767,P109
P109,-0.31,valid,50,inhale,correct,0.511744800001907,P109
P109,-0.31,valid,51,inhale,correct,0.405210500000976,P109
P109,-0.31,invalid,52,inhale,correct,0.415060999999696,P109
P109,-0.31,valid,53,inhale,correct,0.358641999999236,P109
P109,10,catch,54,inhale,correct,NA,P109
P109,0.31,invalid,55,inhale,correct,0.264741699997103,P109
P109,-0.31,valid,56,inhale,correct,0.305817899999965,P109
P109,0.31,valid,57,inhale,correct,0.268231999998534,P109
P109,-0.31,invalid,58,inhale,correct,0.253175099998771,P109
P109,0.31,invalid,59,inhale,correct,0.31571290000283603,P109
P109,10,catch,0,exhale,correct,NA,P109
P109,10,catch,1,exhale,correct,NA,P109
P109,0.31,invalid,2,exhale,correct,0.4269091999995,P109
P109,0.31,invalid,3,exhale,correct,0.393087200001901,P109
P109,-0.31,valid,4,exhale,correct,0.437284499999805,P109
P109,-0.31,invalid,5,exhale,correct,0.55441029999929,P109
P109,0.31,valid,6,exhale,correct,0.389795500002947,P109
P109,-0.31,invalid,7,exhale,correct,0.284755699998641,P109
P109,-0.31,valid,8,exhale,correct,0.427220000001398,P109
P109,-0.31,invalid,9,exhale,correct,0.280953099998442,P109
P109,0.31,invalid,10,exhale,correct,0.336635300001944,P109
P109,-0.31,invalid,11,exhale,correct,0.259146200001851,P109
P109,0.31,valid,12,exhale,correct,0.265329699999711,P109
P109,10,catch,13,exhale,correct,NA,P109
P109,-0.31,invalid,14,exhale,correct,0.266503599999851,P109
P109,-0.31,valid,15,exhale,correct,0.411901400002535,P109
P109,10,catch,16,exhale,correct,NA,P109
P109,10,catch,17,exhale,incorrect,0.242399299997487,P109
P109,0.31,invalid,18,exhale,correct,0.316639399999985,P109
P109,10,catch,19,exhale,incorrect,0.321738200000254,P109
P109,0.31,invalid,20,exhale,correct,0.414219100002811,P109
P109,-0.31,valid,21,exhale,correct,0.364188099996682,P109
P109,0.31,valid,22,exhale,correct,0.307028300001548,P109
P109,-0.31,invalid,23,exhale,correct,0.341269799999282,P109
P109,0.31,valid,24,exhale,correct,0.377307400001882,P109
P109,-0.31,invalid,25,exhale,correct,0.343009100000927,P109
P109,-0.31,valid,26,exhale,correct,0.484018600000127,P109
P109,0.31,valid,27,exhale,correct,0.531602200000634,P109
P109,10,catch,28,exhale,correct,NA,P109
P109,0.31,valid,29,exhale,correct,0.366019400000368,P109
P109,0.31,valid,30,exhale,correct,0.478018699999666,P109
P109,-0.31,valid,31,exhale,correct,0.390747699999338,P109
P109,0.31,valid,32,exhale,correct,0.311031699999148,P109
P109,-0.31,invalid,33,exhale,correct,0.340307599999505,P109
P109,10,catch,34,exhale,incorrect,0.305945000000065,P109
P109,0.31,valid,35,exhale,correct,0.361068799997156,P109
P109,-0.31,invalid,36,exhale,correct,0.428918100002193,P109
P109,0.31,invalid,37,exhale,correct,0.365072000000509,P109
P109,0.31,invalid,38,exhale,correct,0.359933800002182,P109
P109,0.31,valid,39,exhale,correct,0.29724300000089,P109
P109,0.31,invalid,40,exhale,correct,0.342665899999702,P109
P109,10,catch,41,exhale,correct,NA,P109
P109,-0.31,valid,42,exhale,correct,0.300700399999187,P109
P109,10,catch,43,exhale,correct,NA,P109
P109,0.31,invalid,44,exhale,correct,0.42084690000047,P109
P109,0.31,invalid,45,exhale,correct,0.421159399997123,P109
P109,0.31,valid,46,exhale,correct,0.481571500000427,P109
P109,-0.31,valid,47,exhale,correct,0.291308299998491,P109
P109,-0.31,invalid,48,exhale,correct,0.272120800000266,P109
P109,10,catch,49,exhale,correct,NA,P109
P109,-0.31,valid,50,exhale,correct,0.924527200000739,P109
P109,-0.31,valid,51,exhale,correct,0.467357800000173,P109
P109,-0.31,invalid,52,exhale,correct,0.436892999998236,P109
P109,-0.31,valid,53,exhale,correct,0.655692299998918,P109
P109,10,catch,54,exhale,incorrect,0.285368699998799,P109
P109,0.31,invalid,55,exhale,correct,0.337984199999482,P109
P109,-0.31,valid,56,exhale,correct,0.38101039999674,P109
P109,0.31,valid,57,exhale,correct,0.309620799998811,P109
P109,-0.31,invalid,58,exhale,correct,0.432979000001069,P109
P109,0.31,invalid,59,exhale,correct,0.448481600000378,P109
P110,10,catch,0,exhale,correct,NA,P110
P110,10,catch,1,exhale,correct,NA,P110
P110,0.31,invalid,2,exhale,correct,0.628455900000063,P110
P110,0.31,invalid,3,exhale,correct,0.578730599999972,P110
P110,-0.31,valid,4,exhale,correct,0.413070900000093,P110
P110,-0.31,invalid,5,exhale,correct,0.445039500000121,P110
P110,0.31,valid,6,exhale,correct,0.351237700000183,P110
P110,-0.31,invalid,7,exhale,correct,0.350553399999853,P110
P110,-0.31,valid,8,exhale,correct,0.679058299999951,P110
P110,-0.31,invalid,9,exhale,correct,0.451738199999909,P110
P110,0.31,invalid,10,exhale,correct,0.6848829999999,P110
P110,-0.31,invalid,11,exhale,correct,0.508279700000003,P110
P110,0.31,valid,12,exhale,correct,0.448137300000099,P110
P110,10,catch,13,exhale,correct,NA,P110
P110,-0.31,invalid,14,exhale,correct,0.422299000000066,P110
P110,-0.31,valid,15,exhale,correct,0.422466800000166,P110
P110,10,catch,16,exhale,correct,NA,P110
P110,10,catch,17,exhale,correct,NA,P110
P110,0.31,invalid,18,exhale,correct,0.521309200000132,P110
P110,10,catch,19,exhale,correct,NA,P110
P110,0.31,invalid,20,exhale,correct,0.482246399999894,P110
P110,-0.31,valid,21,exhale,correct,0.552919599999996,P110
P110,0.31,valid,22,exhale,correct,0.706452800000079,P110
P110,-0.31,invalid,23,exhale,correct,0.49863930000015,P110
P110,0.31,valid,24,exhale,correct,0.456862900000033,P110
P110,-0.31,invalid,25,exhale,correct,0.41326550000008,P110
P110,-0.31,valid,26,exhale,correct,0.447779899999887,P110
P110,0.31,valid,27,exhale,correct,0.396854399999938,P110
P110,10,catch,28,exhale,correct,NA,P110
P110,0.31,valid,29,exhale,correct,0.500720000000001,P110
P110,0.31,valid,30,exhale,correct,0.526043399999935,P110
P110,-0.31,valid,31,exhale,correct,0.522262000000183,P110
P110,0.31,valid,32,exhale,correct,0.504420999999866,P110
P110,-0.31,invalid,33,exhale,correct,0.379578300000048,P110
P110,10,catch,34,exhale,correct,NA,P110
P110,0.31,valid,35,exhale,correct,0.480876099999932,P110
P110,-0.31,invalid,36,exhale,correct,0.49648030000003,P110
P110,0.31,invalid,37,exhale,correct,0.444539499999792,P110
P110,0.31,invalid,38,exhale,correct,0.49701170000003,P110
P110,0.31,valid,39,exhale,correct,0.498484800000142,P110
P110,0.31,invalid,40,exhale,correct,0.622110000000021,P110
P110,10,catch,41,exhale,correct,NA,P110
P110,-0.31,valid,42,exhale,correct,0.47248639999998,P110
P110,10,catch,43,exhale,correct,NA,P110
P110,0.31,invalid,44,exhale,correct,0.484020500000042,P110
P110,0.31,invalid,45,exhale,correct,0.522183000000041,P110
P110,0.31,valid,46,exhale,correct,0.559953199999882,P110
P110,-0.31,valid,47,exhale,correct,0.520235100000036,P110
P110,-0.31,invalid,48,exhale,correct,0.430386099999851,P110
P110,10,catch,49,exhale,correct,NA,P110
P110,-0.31,valid,50,exhale,correct,0.431511300000011,P110
P110,-0.31,valid,51,exhale,correct,0.436317599999938,P110
P110,-0.31,invalid,52,exhale,correct,0.477775500000007,P110
P110,-0.31,valid,53,exhale,correct,0.460015399999975,P110
P110,10,catch,54,exhale,correct,NA,P110
P110,0.31,invalid,55,exhale,correct,0.499486299999944,P110
P110,-0.31,valid,56,exhale,correct,0.472142499999791,P110
P110,0.31,valid,57,exhale,correct,0.386044800000036,P110
P110,-0.31,invalid,58,exhale,correct,0.411924399999862,P110
P110,0.31,invalid,59,exhale,correct,0.554873099999895,P110
P110,10,catch,0,inhale,correct,NA,P110
P110,10,catch,1,inhale,correct,NA,P110
P110,0.31,invalid,2,inhale,correct,0.46727769999984,P110
P110,0.31,invalid,3,inhale,correct,0.457003299999997,P110
P110,-0.31,valid,4,inhale,correct,0.409689700000172,P110
P110,-0.31,invalid,5,inhale,correct,0.423767600000019,P110
P110,0.31,valid,6,inhale,correct,0.461253299999953,P110
P110,-0.31,invalid,7,inhale,correct,0.311299100000042,P110
P110,-0.31,valid,8,inhale,correct,0.406812400000035,P110
P110,-0.31,invalid,9,inhale,correct,0.45652310000014,P110
P110,0.31,invalid,10,inhale,correct,0.344750499999918,P110
P110,-0.31,invalid,11,inhale,correct,0.515546900000118,P110
P110,0.31,valid,12,inhale,correct,0.385977700000012,P110
P110,10,catch,13,inhale,correct,NA,P110
P110,-0.31,invalid,14,inhale,correct,0.435373099999879,P110
P110,-0.31,valid,15,inhale,correct,0.467330199999878,P110
P110,10,catch,16,inhale,correct,NA,P110
P110,10,catch,17,inhale,correct,NA,P110
P110,0.31,invalid,18,inhale,correct,0.474076699999841,P110
P110,10,catch,19,inhale,correct,NA,P110
P110,0.31,invalid,20,inhale,correct,0.456912500000044,P110
P110,-0.31,valid,21,inhale,correct,0.446049099999982,P110
P110,0.31,valid,22,inhale,correct,0.624725099999978,P110
P110,-0.31,invalid,23,inhale,correct,0.477386400000114,P110
P110,0.31,valid,24,inhale,correct,0.420053999999936,P110
P110,-0.31,invalid,25,inhale,correct,0.444498999999951,P110
P110,-0.31,valid,26,inhale,correct,0.50595149999981,P110
P110,0.31,valid,27,inhale,correct,0.440212399999837,P110
P110,10,catch,28,inhale,correct,NA,P110
P110,0.31,valid,29,inhale,correct,0.462104899999986,P110
P110,0.31,valid,30,inhale,correct,0.476666000000023,P110
P110,-0.31,valid,31,inhale,correct,0.476996499999814,P110
P110,0.31,valid,32,inhale,correct,1.01649859999998,P110
P110,-0.31,invalid,33,inhale,correct,0.411303800000042,P110
P110,10,catch,34,inhale,correct,NA,P110
P110,0.31,valid,35,inhale,correct,0.441686300000129,P110
P110,-0.31,invalid,36,inhale,correct,0.472514499999988,P110
P110,0.31,invalid,37,inhale,correct,0.481330000000071,P110
P110,0.31,invalid,38,inhale,correct,0.694291199999952,P110
P110,0.31,valid,39,inhale,correct,0.478114700000106,P110
P110,0.31,invalid,40,inhale,correct,0.39321259999997,P110
P110,10,catch,41,inhale,correct,NA,P110
P110,-0.31,valid,42,inhale,correct,0.519927600000074,P110
P110,10,catch,43,inhale,correct,NA,P110
P110,0.31,invalid,44,inhale,correct,0.458179700000073,P110
P110,0.31,invalid,45,inhale,correct,0.650304000000006,P110
P110,0.31,valid,46,inhale,correct,0.46505900000011,P110
P110,-0.31,valid,47,inhale,correct,0.454639100000122,P110
P110,-0.31,invalid,48,inhale,correct,0.498596099999986,P110
P110,10,catch,49,inhale,correct,NA,P110
P110,-0.31,valid,50,inhale,correct,0.478254500000048,P110
P110,-0.31,valid,51,inhale,correct,0.463637199999994,P110
P110,-0.31,invalid,52,inhale,correct,0.48393249999981,P110
P110,-0.31,valid,53,inhale,correct,0.991187099999934,P110
P110,10,catch,54,inhale,correct,NA,P110
P110,0.31,invalid,55,inhale,correct,0.489940700000034,P110
P110,-0.31,valid,56,inhale,correct,0.427705699999933,P110
P110,0.31,valid,57,inhale,correct,0.469244599999911,P110
P110,-0.31,invalid,58,inhale,correct,0.421093800000108,P110
P110,0.31,invalid,59,inhale,correct,0.939686599999959,P110
P111,10,catch,0,inhale,correct,NA,P111
P111,10,catch,1,inhale,correct,NA,P111
P111,0.31,invalid,2,inhale,correct,0.538139499999488,P111
P111,0.31,invalid,3,inhale,correct,0.521145499999875,P111
P111,-0.31,valid,4,inhale,correct,0.474710100000266,P111
P111,-0.31,invalid,5,inhale,correct,0.475977899999634,P111
P111,0.31,valid,6,inhale,correct,0.407783399999971,P111
P111,-0.31,invalid,7,inhale,correct,0.405735800000002,P111
P111,-0.31,valid,8,inhale,correct,0.411096200000429,P111
P111,-0.31,invalid,9,inhale,correct,0.48338429999967,P111
P111,0.31,invalid,10,inhale,correct,0.442276700000548,P111
P111,-0.31,invalid,11,inhale,correct,0.462585799999943,P111
P111,0.31,valid,12,inhale,correct,0.42715440000029,P111
P111,10,catch,13,inhale,correct,NA,P111
P111,-0.31,invalid,14,inhale,correct,0.425354699999843,P111
P111,-0.31,valid,15,inhale,correct,0.466042899999593,P111
P111,10,catch,16,inhale,correct,NA,P111
P111,10,catch,17,inhale,correct,NA,P111
P111,0.31,invalid,18,inhale,correct,0.465668099999675,P111
P111,10,catch,19,inhale,correct,NA,P111
P111,0.31,invalid,20,inhale,correct,0.463514699999905,P111
P111,-0.31,valid,21,inhale,correct,0.456507000000784,P111
P111,0.31,valid,22,inhale,correct,0.470328399999744,P111
P111,-0.31,invalid,23,inhale,correct,0.432394500000555,P111
P111,0.31,valid,24,inhale,correct,0.444780300000275,P111
P111,-0.31,invalid,25,inhale,correct,0.450745500000266,P111
P111,-0.31,valid,26,inhale,correct,0.388447299999825,P111
P111,0.31,valid,27,inhale,correct,0.371836799999983,P111
P111,10,catch,28,inhale,correct,NA,P111
P111,0.31,valid,29,inhale,correct,0.386280100000477,P111
P111,0.31,valid,30,inhale,correct,0.47237910000058,P111
P111,-0.31,valid,31,inhale,correct,0.430402799999683,P111
P111,0.31,valid,32,inhale,correct,0.410718200000701,P111
P111,-0.31,invalid,33,inhale,correct,0.462860000000546,P111
P111,10,catch,34,inhale,correct,NA,P111
P111,0.31,valid,35,inhale,correct,0.46210020000035,P111
P111,-0.31,invalid,36,inhale,correct,0.426678699999684,P111
P111,0.31,invalid,37,inhale,correct,0.536930100000063,P111
P111,0.31,invalid,38,inhale,correct,0.484078599999521,P111
P111,0.31,valid,39,inhale,correct,0.566749999999956,P111
P111,0.31,invalid,40,inhale,correct,0.446135200000754,P111
P111,10,catch,41,inhale,correct,NA,P111
P111,-0.31,valid,42,inhale,correct,0.391423000000032,P111
P111,10,catch,43,inhale,correct,NA,P111
P111,0.31,invalid,44,inhale,correct,0.413926100000026,P111
P111,0.31,invalid,45,inhale,correct,0.437888299999941,P111
P111,0.31,valid,46,inhale,correct,0.454419400000006,P111
P111,-0.31,valid,47,inhale,correct,0.457858400000077,P111
P111,-0.31,invalid,48,inhale,correct,0.387050599999384,P111
P111,10,catch,49,inhale,correct,NA,P111
P111,-0.31,valid,50,inhale,correct,0.454762399999709,P111
P111,-0.31,valid,51,inhale,correct,0.526296400000319,P111
P111,-0.31,invalid,52,inhale,correct,0.514213200000086,P111
P111,-0.31,valid,53,inhale,correct,0.456164299999728,P111
P111,10,catch,54,inhale,correct,NA,P111
P111,0.31,invalid,55,inhale,correct,0.456778699999631,P111
P111,-0.31,valid,56,inhale,correct,0.466096000000107,P111
P111,0.31,valid,57,inhale,correct,0.429744799999753,P111
P111,-0.31,invalid,58,inhale,correct,0.465267099999437,P111
P111,0.31,invalid,59,inhale,correct,0.435257799999818,P111
P111,10,catch,0,exhale,correct,NA,P111
P111,10,catch,1,exhale,correct,NA,P111
P111,0.31,invalid,2,exhale,correct,0.526035699999738,P111
P111,0.31,invalid,3,exhale,correct,0.545986500000254,P111
P111,-0.31,valid,4,exhale,correct,0.504307000000153,P111
P111,-0.31,invalid,5,exhale,correct,0.476290300000073,P111
P111,0.31,valid,6,exhale,correct,0.369081699999697,P111
P111,-0.31,invalid,7,exhale,correct,0.458750400000099,P111
P111,-0.31,valid,8,exhale,correct,0.467341600000509,P111
P111,-0.31,invalid,9,exhale,correct,0.680449299999964,P111
P111,0.31,invalid,10,exhale,correct,0.816787200000363,P111
P111,-0.31,invalid,11,exhale,correct,0.535386900000958,P111
P111,0.31,valid,12,exhale,correct,0.440043100001276,P111
P111,10,catch,13,exhale,correct,NA,P111
P111,-0.31,invalid,14,exhale,correct,0.592311399999744,P111
P111,-0.31,valid,15,exhale,correct,0.478577299998506,P111
P111,10,catch,16,exhale,correct,NA,P111
P111,10,catch,17,exhale,correct,NA,P111
P111,0.31,invalid,18,exhale,correct,0.524522499999875,P111
P111,10,catch,19,exhale,correct,NA,P111
P111,0.31,invalid,20,exhale,correct,0.512654699999985,P111
P111,-0.31,valid,21,exhale,correct,0.558571800000209,P111
P111,0.31,valid,22,exhale,correct,0.450748500001282,P111
P111,-0.31,invalid,23,exhale,correct,0.618687000000136,P111
P111,0.31,valid,24,exhale,correct,0.640942600000926,P111
P111,-0.31,invalid,25,exhale,correct,0.856823299998723,P111
P111,-0.31,valid,26,exhale,correct,0.816259499999433,P111
P111,0.31,valid,27,exhale,correct,0.540064799999527,P111
P111,10,catch,28,exhale,correct,NA,P111
P111,0.31,valid,29,exhale,correct,0.724488400001064,P111
P111,0.31,valid,30,exhale,correct,0.60622069999954,P111
P111,-0.31,valid,31,exhale,correct,0.426624699999593,P111
P111,0.31,valid,32,exhale,correct,0.486970199999632,P111
P111,-0.31,invalid,33,exhale,correct,0.760821899999428,P111
P111,10,catch,34,exhale,correct,NA,P111
P111,0.31,valid,35,exhale,correct,0.527283299999908,P111
P111,-0.31,invalid,36,exhale,correct,0.53828969999995,P111
P111,0.31,invalid,37,exhale,correct,0.523275899999135,P111
P111,0.31,invalid,38,exhale,correct,0.488668900001358,P111
P111,0.31,valid,39,exhale,correct,0.404551400000855,P111
P111,0.31,invalid,40,exhale,correct,0.413182700000107,P111
P111,10,catch,41,exhale,correct,NA,P111
P111,-0.31,valid,42,exhale,correct,0.404059399999824,P111
P111,10,catch,43,exhale,correct,NA,P111
P111,0.31,invalid,44,exhale,correct,0.455478800000492,P111
P111,0.31,invalid,45,exhale,correct,0.476756699999896,P111
P111,0.31,valid,46,exhale,correct,0.688501200000246,P111
P111,-0.31,valid,47,exhale,correct,0.717166299999008,P111
P111,-0.31,invalid,48,exhale,correct,0.775275600000896,P111
P111,10,catch,49,exhale,correct,NA,P111
P111,-0.31,valid,50,exhale,correct,0.424232299999858,P111
P111,-0.31,valid,51,exhale,correct,0.430500399999801,P111
P111,-0.31,invalid,52,exhale,correct,0.462031500001103,P111
P111,-0.31,valid,53,exhale,correct,0.652874600000359,P111
P111,10,catch,54,exhale,correct,NA,P111
P111,0.31,invalid,55,exhale,correct,0.542239099999279,P111
P111,-0.31,valid,56,exhale,correct,0.390268099999957,P111
P111,0.31,valid,57,exhale,correct,0.690885300000446,P111
P111,-0.31,invalid,58,exhale,correct,0.681884499999796,P111
P111,0.31,invalid,59,exhale,correct,0.597530600000027,P111
P112,10,catch,0,exhale,correct,NA,P112
P112,10,catch,1,exhale,correct,NA,P112
P112,0.31,invalid,2,exhale,correct,0.426017600000705,P112
P112,0.31,invalid,3,exhale,correct,0.35595210000065,P112
P112,-0.31,valid,4,exhale,correct,0.404563299998699,P112
P112,-0.31,invalid,5,exhale,correct,0.49448559999837,P112
P112,0.31,valid,6,exhale,correct,0.36295329999848,P112
P112,-0.31,invalid,7,exhale,correct,0.381215399998837,P112
P112,-0.31,valid,8,exhale,correct,0.548583699999654,P112
P112,-0.31,invalid,9,exhale,correct,0.383666600000652,P112
P112,0.31,invalid,10,exhale,correct,0.315150600001289,P112
P112,-0.31,invalid,11,exhale,correct,0.305151900000055,P112
P112,0.31,valid,12,exhale,correct,0.55567130000054,P112
P112,10,catch,13,exhale,correct,NA,P112
P112,-0.31,invalid,14,exhale,correct,0.515906399999949,P112
P112,-0.31,valid,15,exhale,correct,0.419136900000012,P112
P112,10,catch,16,exhale,correct,NA,P112
P112,10,catch,17,exhale,correct,NA,P112
P112,0.31,invalid,18,exhale,correct,0.422709899999973,P112
P112,10,catch,19,exhale,correct,NA,P112
P112,0.31,invalid,20,exhale,correct,0.521350900000471,P112
P112,-0.31,valid,21,exhale,correct,0.558939099999407,P112
P112,0.31,valid,22,exhale,correct,0.385092599999552,P112
P112,-0.31,invalid,23,exhale,correct,0.397941699999137,P112
P112,0.31,valid,24,exhale,correct,0.344106399999873,P112
P112,-0.31,invalid,25,exhale,correct,0.428341700000601,P112
P112,-0.31,valid,26,exhale,correct,0.419533900001625,P112
P112,0.31,valid,27,exhale,correct,0.419170499999382,P112
P112,10,catch,28,exhale,correct,NA,P112
P112,0.31,valid,29,exhale,correct,0.46547019999889,P112
P112,0.31,valid,30,exhale,correct,0.320419499999844,P112
P112,-0.31,valid,31,exhale,correct,0.454702600000019,P112
P112,0.31,valid,32,exhale,correct,0.263679499999853,P112
P112,-0.31,invalid,33,exhale,correct,0.431092200000421,P112
P112,10,catch,34,exhale,incorrect,0.328117300001395,P112
P112,0.31,valid,35,exhale,correct,0.429047300000093,P112
P112,-0.31,invalid,36,exhale,correct,0.350688000000446,P112
P112,0.31,invalid,37,exhale,correct,0.32273990000067,P112
P112,0.31,invalid,38,exhale,correct,0.346886699999231,P112
P112,0.31,valid,39,exhale,correct,0.32828420000078,P112
P112,0.31,invalid,40,exhale,correct,0.420485399999961,P112
P112,10,catch,41,exhale,correct,NA,P112
P112,-0.31,valid,42,exhale,correct,0.455213100000037,P112
P112,10,catch,43,exhale,correct,NA,P112
P112,0.31,invalid,44,exhale,correct,0.450512699999308,P112
P112,0.31,invalid,45,exhale,correct,0.380967200000669,P112
P112,0.31,valid,46,exhale,correct,0.367263399999501,P112
P112,-0.31,valid,47,exhale,correct,0.315998600000967,P112
P112,-0.31,invalid,48,exhale,correct,0.421780000000581,P112
P112,10,catch,49,exhale,correct,NA,P112
P112,-0.31,valid,50,exhale,correct,0.485216900000523,P112
P112,-0.31,valid,51,exhale,correct,0.53836500000034,P112
P112,-0.31,invalid,52,exhale,correct,0.46329809999952,P112
P112,-0.31,valid,53,exhale,correct,0.504293199999665,P112
P112,10,catch,54,exhale,correct,NA,P112
P112,0.31,invalid,55,exhale,correct,0.417371600000479,P112
P112,-0.31,valid,56,exhale,correct,0.476312300001155,P112
P112,0.31,valid,57,exhale,correct,0.369711400000597,P112
P112,-0.31,invalid,58,exhale,correct,0.511883900000612,P112
P112,0.31,invalid,59,exhale,correct,0.395932000001267,P112
P112,10,catch,0,inhale,correct,NA,P112
P112,10,catch,1,inhale,correct,NA,P112
P112,0.31,invalid,2,inhale,correct,0.45345240000097,P112
P112,0.31,invalid,3,inhale,correct,0.467200600000069,P112
P112,-0.31,valid,4,inhale,correct,0.323279999998704,P112
P112,-0.31,invalid,5,inhale,correct,0.475452000000587,P112
P112,0.31,valid,6,inhale,correct,0.357193599998936,P112
P112,-0.31,invalid,7,inhale,correct,0.323057000001427,P112
P112,-0.31,valid,8,inhale,correct,0.38315330000114,P112
P112,-0.31,invalid,9,inhale,correct,0.45643249999921,P112
P112,0.31,invalid,10,inhale,correct,0.329054199999518,P112
P112,-0.31,invalid,11,inhale,correct,0.367713300000105,P112
P112,0.31,valid,12,inhale,correct,0.307518499999787,P112
P112,10,catch,13,inhale,correct,NA,P112
P112,-0.31,invalid,14,inhale,correct,0.520038299999214,P112
P112,-0.31,valid,15,inhale,correct,0.341456300000573,P112
P112,10,catch,16,inhale,correct,NA,P112
P112,10,catch,17,inhale,correct,NA,P112
P112,0.31,invalid,18,inhale,correct,0.517085499999666,P112
P112,10,catch,19,inhale,correct,NA,P112
P112,0.31,invalid,20,inhale,correct,0.458326199999647,P112
P112,-0.31,valid,21,inhale,correct,0.367231500000344,P112
P112,0.31,valid,22,inhale,correct,0.285148099999788,P112
P112,-0.31,invalid,23,inhale,correct,0.318404299998292,P112
P112,0.31,valid,24,inhale,correct,0.337555300000531,P112
P112,-0.31,invalid,25,inhale,correct,0.405139799999233,P112
P112,-0.31,valid,26,inhale,correct,0.53676430000086806,P112
P112,0.31,valid,27,inhale,correct,0.422405700001036,P112
P112,10,catch,28,inhale,correct,NA,P112
P112,0.31,valid,29,inhale,correct,0.581563499999902,P112
P112,0.31,valid,30,inhale,correct,0.397252200000366,P112
P112,-0.31,valid,31,inhale,correct,0.511437600000136,P112
P112,0.31,valid,32,inhale,correct,0.324677199998405,P112
P112,-0.31,invalid,33,inhale,correct,0.350567899999078,P112
P112,10,catch,34,inhale,incorrect,0.233808699998917,P112
P112,0.31,valid,35,inhale,correct,0.314978100001099,P112
P112,-0.31,invalid,36,inhale,correct,0.290335399999094,P112
P112,0.31,invalid,37,inhale,correct,0.349476999999752,P112
P112,0.31,invalid,38,inhale,correct,0.289744399999108,P112
P112,0.31,valid,39,inhale,correct,0.380086400000437,P112
P112,0.31,invalid,40,inhale,correct,0.38994300000013,P112
P112,10,catch,41,inhale,correct,NA,P112
P112,-0.31,valid,42,inhale,correct,0.541661499999464,P112
P112,10,catch,43,inhale,correct,NA,P112
P112,0.31,invalid,44,inhale,correct,0.39709430000039,P112
P112,0.31,invalid,45,inhale,correct,0.341250600000421,P112
P112,0.31,valid,46,inhale,correct,0.387256800000614,P112
P112,-0.31,valid,47,inhale,correct,0.574209000000337,P112
P112,-0.31,invalid,48,inhale,correct,0.31134960000054,P112
P112,10,catch,49,inhale,incorrect,0.280799000000115,P112
P112,-0.31,valid,50,inhale,correct,0.391153099999428,P112
P112,-0.31,valid,51,inhale,correct,0.382617499999469,P112
P112,-0.31,invalid,52,inhale,correct,0.30143710000084,P112
P112,-0.31,valid,53,inhale,correct,0.326829199999338,P112
P112,10,catch,54,inhale,correct,NA,P112
P112,0.31,invalid,55,inhale,correct,0.529922199999419,P112
P112,-0.31,valid,56,inhale,correct,0.359930900000109,P112
P112,0.31,valid,57,inhale,correct,0.266650000001391,P112
P112,-0.31,invalid,58,inhale,correct,0.323861700000634,P112
P112,0.31,invalid,59,inhale,correct,0.364682600000378,P112
P113,10,catch,0,inhale,correct,NA,P113
P113,10,catch,1,inhale,correct,NA,P113
P113,0.31,invalid,2,inhale,correct,0.399585099999967,P113
P113,0.31,invalid,3,inhale,correct,0.363995100000011,P113
P113,-0.31,valid,4,inhale,correct,0.36323520000002,P113
P113,-0.31,invalid,5,inhale,correct,0.364847700000041,P113
P113,0.31,valid,6,inhale,correct,0.356394800000032,P113
P113,-0.31,invalid,7,inhale,correct,0.36617629999995,P113
P113,-0.31,valid,8,inhale,correct,0.413783000000024,P113
P113,-0.31,invalid,9,inhale,correct,0.342409099999998,P113
P113,0.31,invalid,10,inhale,correct,0.345615199999997,P113
P113,-0.31,invalid,11,inhale,correct,0.517613900000015,P113
P113,0.31,valid,12,inhale,correct,0.377754400000072,P113
P113,10,catch,13,inhale,correct,NA,P113
P113,-0.31,invalid,14,inhale,correct,0.389805899999942,P113
P113,-0.31,valid,15,inhale,correct,0.381970500000079,P113
P113,10,catch,16,inhale,correct,NA,P113
P113,10,catch,17,inhale,correct,NA,P113
P113,0.31,invalid,18,inhale,correct,0.370937000000026,P113
P113,10,catch,19,inhale,correct,NA,P113
P113,0.31,invalid,20,inhale,correct,0.359220899999968,P113
P113,-0.31,valid,21,inhale,correct,0.334024400000089,P113
P113,0.31,valid,22,inhale,correct,0.315545199999974,P113
P113,-0.31,invalid,23,inhale,correct,0.358831799999962,P113
P113,0.31,valid,24,inhale,correct,0.342468199999985,P113
P113,-0.31,invalid,25,inhale,correct,0.366649199999983,P113
P113,-0.31,valid,26,inhale,correct,0.340865899999926,P113
P113,0.31,valid,27,inhale,correct,0.375614499999983,P113
P113,10,catch,28,inhale,correct,NA,P113
P113,0.31,valid,29,inhale,correct,0.397313599999961,P113
P113,0.31,valid,30,inhale,correct,0.362567300000023,P113
P113,-0.31,valid,31,inhale,correct,0.379294700000059,P113
P113,0.31,valid,32,inhale,correct,0.323338000000035,P113
P113,-0.31,invalid,33,inhale,correct,0.40903400000002,P113
P113,10,catch,34,inhale,correct,NA,P113
P113,0.31,valid,35,inhale,correct,0.330215400000043,P113
P113,-0.31,invalid,36,inhale,correct,0.362950400000045,P113
P113,0.31,invalid,37,inhale,correct,0.351410299999998,P113
P113,0.31,invalid,38,inhale,correct,0.438371800000027,P113
P113,0.31,valid,39,inhale,correct,0.392455599999948,P113
P113,0.31,invalid,40,inhale,correct,0.388135799999986,P113
P113,10,catch,41,inhale,correct,NA,P113
P113,-0.31,valid,42,inhale,correct,0.329344799999944,P113
P113,10,catch,43,inhale,correct,NA,P113
P113,0.31,invalid,44,inhale,correct,0.341684800000053,P113
P113,0.31,invalid,45,inhale,correct,0.361165099999994,P113
P113,0.31,valid,46,inhale,correct,0.422618000000057,P113
P113,-0.31,valid,47,inhale,correct,0.382277199999976,P113
P113,-0.31,invalid,48,inhale,correct,0.382997799999998,P113
P113,10,catch,49,inhale,incorrect,0.30927209999993,P113
P113,-0.31,valid,50,inhale,correct,0.38014679999992,P113
P113,-0.31,valid,51,inhale,correct,0.385790899999961,P113
P113,-0.31,invalid,52,inhale,correct,0.408915999999977,P113
P113,-0.31,valid,53,inhale,correct,0.560454499999992,P113
P113,10,catch,54,inhale,correct,NA,P113
P113,0.31,invalid,55,inhale,correct,0.390029400000003,P113
P113,-0.31,valid,56,inhale,correct,0.393996300000026,P113
P113,0.31,valid,57,inhale,correct,0.356686999999965,P113
P113,-0.31,invalid,58,inhale,correct,0.351575099999991,P113
P113,0.31,invalid,59,inhale,correct,0.332584399999973,P113
P113,10,catch,0,exhale,correct,NA,P113
P113,10,catch,1,exhale,correct,NA,P113
P113,0.31,invalid,2,exhale,correct,0.518594900000039,P113
P113,0.31,invalid,3,exhale,correct,0.339564699999983,P113
P113,-0.31,valid,4,exhale,correct,0.393626199999972,P113
P113,-0.31,invalid,5,exhale,correct,0.502127300000097,P113
P113,0.31,valid,6,exhale,correct,0.492439800000056,P113
P113,-0.31,invalid,7,exhale,correct,0.364623499999993,P113
P113,-0.31,valid,8,exhale,correct,0.362087599999995,P113
P113,-0.31,invalid,9,exhale,correct,0.382091500000001,P113
P113,0.31,invalid,10,exhale,correct,0.436269400000015,P113
P113,-0.31,invalid,11,exhale,correct,0.464595499999973,P113
P113,0.31,valid,12,exhale,correct,0.386520000000019,P113
P113,10,catch,13,exhale,correct,NA,P113
P113,-0.31,invalid,14,exhale,correct,0.363556400000107,P113
P113,-0.31,valid,15,exhale,correct,0.386803999999984,P113
P113,10,catch,16,exhale,correct,NA,P113
P113,10,catch,17,exhale,correct,NA,P113
P113,0.31,invalid,18,exhale,correct,0.348630499999899,P113
P113,10,catch,19,exhale,correct,NA,P113
P113,0.31,invalid,20,exhale,correct,0.363849000000073,P113
P113,-0.31,valid,21,exhale,correct,0.462832000000162,P113
P113,0.31,valid,22,exhale,correct,0.325106400000095,P113
P113,-0.31,invalid,23,exhale,correct,0.385061599999972,P113
P113,0.31,valid,24,exhale,correct,0.370404199999939,P113
P113,-0.31,invalid,25,exhale,correct,0.36167730000011,P113
P113,-0.31,valid,26,exhale,correct,0.439142400000037,P113
P113,0.31,valid,27,exhale,correct,0.420426399999997,P113
P113,10,catch,28,exhale,correct,NA,P113
P113,0.31,valid,29,exhale,correct,0.329437200000029,P113
P113,0.31,valid,30,exhale,correct,0.402813000000151,P113
P113,-0.31,valid,31,exhale,correct,0.402468799999951,P113
P113,0.31,valid,32,exhale,correct,0.467839899999944,P113
P113,-0.31,invalid,33,exhale,correct,0.39804069999991,P113
P113,10,catch,34,exhale,correct,NA,P113
P113,0.31,valid,35,exhale,correct,0.379392800000005,P113
P113,-0.31,invalid,36,exhale,correct,0.546883199999911,P113
P113,0.31,invalid,37,exhale,correct,0.365406099999973,P113
P113,0.31,invalid,38,exhale,correct,0.27791389999993,P113
P113,0.31,valid,39,exhale,correct,0.375426500000003,P113
P113,0.31,invalid,40,exhale,correct,0.384835300000077,P113
P113,10,catch,41,exhale,correct,NA,P113
P113,-0.31,valid,42,exhale,correct,0.413985599999933,P113
P113,10,catch,43,exhale,correct,NA,P113
P113,0.31,invalid,44,exhale,correct,0.392576399999825,P113
P113,0.31,invalid,45,exhale,correct,0.403868800000055,P113
P113,0.31,valid,46,exhale,correct,0.348648599999933,P113
P113,-0.31,valid,47,exhale,correct,0.336452799999961,P113
P113,-0.31,invalid,48,exhale,correct,0.346949799999948,P113
P113,10,catch,49,exhale,incorrect,0.308243599999969,P113
P113,-0.31,valid,50,exhale,correct,0.369625499999984,P113
P113,-0.31,valid,51,exhale,correct,0.387290899999925,P113
P113,-0.31,invalid,52,exhale,correct,0.391239999999925,P113
P113,-0.31,valid,53,exhale,correct,0.341202700000167,P113
P113,10,catch,54,exhale,correct,NA,P113
P113,0.31,invalid,55,exhale,correct,0.461612399999922,P113
P113,-0.31,valid,56,exhale,correct,0.365466599999763,P113
P113,0.31,valid,57,exhale,correct,0.378162900000007,P113
P113,-0.31,invalid,58,exhale,correct,0.400506099999802,P113
P113,0.31,invalid,59,exhale,correct,0.560927199999696,P113
P114,10,catch,0,exhale,incorrect,0.287779900012538,P114
P114,10,catch,1,exhale,correct,NA,P114
P114,0.31,invalid,2,exhale,correct,0.311166300001787,P114
P114,0.31,invalid,3,exhale,correct,0.302600199996959,P114
P114,-0.31,valid,4,exhale,correct,0.346424099989235,P114
P114,-0.31,invalid,5,exhale,correct,0.352106300008018,P114
P114,0.31,valid,6,exhale,correct,0.351519699994242,P114
P114,-0.31,invalid,7,exhale,correct,0.33013149999897,P114
P114,-0.31,valid,8,exhale,correct,0.337681900011376,P114
P114,-0.31,invalid,9,exhale,correct,0.351030499994522,P114
P114,0.31,invalid,10,exhale,correct,0.361176699982025,P114
P114,-0.31,invalid,11,exhale,correct,0.251070800004527,P114
P114,0.31,valid,12,exhale,correct,0.355822000012267,P114
P114,10,catch,13,exhale,incorrect,0.290008700016188,P114
P114,-0.31,invalid,14,exhale,correct,0.405131600011373,P114
P114,-0.31,valid,15,exhale,correct,0.440618900000118,P114
P114,10,catch,16,exhale,correct,NA,P114
P114,10,catch,17,exhale,incorrect,0.38783059999696,P114
P114,0.31,invalid,18,exhale,correct,0.388956300012069,P114
P114,10,catch,19,exhale,correct,NA,P114
P114,0.31,invalid,20,exhale,correct,0.390033499978017,P114
P114,-0.31,valid,21,exhale,correct,0.491328000003705,P114
P114,0.31,valid,22,exhale,correct,0.334729599999264,P114
P114,-0.31,invalid,23,exhale,correct,0.35057899999083,P114
P114,0.31,valid,24,exhale,correct,0.530442899995251,P114
P114,-0.31,invalid,25,exhale,correct,0.401250399998389,P114
P114,-0.31,valid,26,exhale,correct,0.306409400014672,P114
P114,0.31,valid,27,exhale,correct,0.316890199988848,P114
P114,10,catch,28,exhale,correct,NA,P114
P114,0.31,valid,29,exhale,correct,0.373842500004685,P114
P114,0.31,valid,30,exhale,correct,0.592162099987036,P114
P114,-0.31,valid,31,exhale,correct,0.436663000000408,P114
P114,0.31,valid,32,exhale,correct,0.440845999983139,P114
P114,-0.31,invalid,33,exhale,correct,0.398747600003844,P114
P114,10,catch,34,exhale,correct,NA,P114
P114,0.31,valid,35,exhale,correct,0.375015600002371,P114
P114,-0.31,invalid,36,exhale,correct,0.432341100007761,P114
P114,0.31,invalid,37,exhale,correct,0.383508200000506,P114
P114,0.31,invalid,38,exhale,correct,0.372113899997203,P114
P114,0.31,valid,39,exhale,correct,0.374872700020205,P114
P114,0.31,invalid,40,exhale,correct,0.510106300003827,P114
P114,10,catch,41,exhale,correct,NA,P114
P114,-0.31,valid,42,exhale,correct,0.36715340000228,P114
P114,10,catch,43,exhale,correct,NA,P114
P114,0.31,invalid,44,exhale,correct,0.464802100002998,P114
P114,0.31,invalid,45,exhale,correct,0.419350600015605,P114
P114,0.31,valid,46,exhale,correct,0.404034100007266,P114
P114,-0.31,valid,47,exhale,correct,0.368593999999575,P114
P114,-0.31,invalid,48,exhale,correct,0.38481930000125403,P114
P114,10,catch,49,exhale,correct,NA,P114
P114,-0.31,valid,50,exhale,correct,0.416037599992706,P114
P114,-0.31,valid,51,exhale,correct,0.455924699985189,P114
P114,-0.31,invalid,52,exhale,correct,0.458653799985768,P114
P114,-0.31,valid,53,exhale,correct,0.346740799985128,P114
P114,10,catch,54,exhale,correct,NA,P114
P114,0.31,invalid,55,exhale,correct,0.414602799981367,P114
P114,-0.31,valid,56,exhale,correct,0.385423200001242,P114
P114,0.31,valid,57,exhale,correct,0.325531999988016,P114
P114,-0.31,invalid,58,exhale,correct,0.382435100007569,P114
P114,0.31,invalid,59,exhale,correct,0.49733370001195,P114
P114,10,catch,0,inhale,correct,NA,P114
P114,10,catch,1,inhale,correct,NA,P114
P114,0.31,invalid,2,inhale,correct,0.351560799987055,P114
P114,0.31,invalid,3,inhale,correct,0.358106200001203,P114
P114,-0.31,valid,4,inhale,correct,0.325989000004483,P114
P114,-0.31,invalid,5,inhale,correct,0.338671199977398,P114
P114,0.31,valid,6,inhale,correct,0.310359199997038,P114
P114,-0.31,invalid,7,inhale,correct,0.332058300002245,P114
P114,-0.31,valid,8,inhale,correct,0.355981800006703,P114
P114,-0.31,invalid,9,inhale,correct,0.397564399987459,P114
P114,0.31,invalid,10,inhale,correct,0.408403700013878,P114
P114,-0.31,invalid,11,inhale,correct,0.503468300012173,P114
P114,0.31,valid,12,inhale,correct,0.406003199983388,P114
P114,10,catch,13,inhale,incorrect,0.340697900013765,P114
P114,-0.31,invalid,14,inhale,correct,0.34884890000103,P114
P114,-0.31,valid,15,inhale,correct,0.381889599986607,P114
P114,10,catch,16,inhale,incorrect,0.315053600003012,P114
P114,10,catch,17,inhale,correct,NA,P114
P114,0.31,invalid,18,inhale,correct,0.406442599982256,P114
P114,10,catch,19,inhale,correct,NA,P114
P114,0.31,invalid,20,inhale,correct,0.355249600019306,P114
P114,-0.31,valid,21,inhale,correct,0.442969300027471,P114
P114,0.31,valid,22,inhale,correct,0.511601300007896,P114
P114,-0.31,invalid,23,inhale,correct,0.376198199985083,P114
P114,0.31,valid,24,inhale,correct,0.352843100001337,P114
P114,-0.31,invalid,25,inhale,correct,0.368028700002469,P114
P114,-0.31,valid,26,inhale,correct,0.428614100004779,P114
P114,0.31,valid,27,inhale,correct,0.390602500003297,P114
P114,10,catch,28,inhale,correct,NA,P114
P114,0.31,valid,29,inhale,correct,0.352843700005906,P114
P114,0.31,valid,30,inhale,correct,0.385306000011042,P114
P114,-0.31,valid,31,inhale,correct,0.505228100024397,P114
P114,0.31,valid,32,inhale,correct,0.413360000005923,P114
P114,-0.31,invalid,33,inhale,correct,0.440942000015639,P114
P114,10,catch,34,inhale,correct,NA,P114
P114,0.31,valid,35,inhale,correct,0.400840700021945,P114
P114,-0.31,invalid,36,inhale,correct,0.38788679998833703,P114
P114,0.31,invalid,37,inhale,correct,0.417228500009514,P114
P114,0.31,invalid,38,inhale,correct,0.423740300000645,P114
P114,0.31,valid,39,inhale,correct,0.371804900001734,P114
P114,0.31,invalid,40,inhale,correct,0.355116599996109,P114
P114,10,catch,41,inhale,correct,NA,P114
P114,-0.31,valid,42,inhale,correct,0.362270899990108,P114
P114,10,catch,43,inhale,correct,NA,P114
P114,0.31,invalid,44,inhale,correct,0.311417199991411,P114
P114,0.31,invalid,45,inhale,correct,0.444219700002577,P114
P114,0.31,valid,46,inhale,correct,0.3731839999964,P114
P114,-0.31,valid,47,inhale,correct,0.298446700006025,P114
P114,-0.31,invalid,48,inhale,correct,0.398536399996374,P114
P114,10,catch,49,inhale,correct,NA,P114
P114,-0.31,valid,50,inhale,correct,0.353637200023513,P114
P114,-0.31,valid,51,inhale,correct,0.364935099991271,P114
P114,-0.31,invalid,52,inhale,correct,0.380624599987641,P114
P114,-0.31,valid,53,inhale,correct,0.264927799988072,P114
P114,10,catch,54,inhale,correct,NA,P114
P114,0.31,invalid,55,inhale,correct,0.441453900013585,P114
P114,-0.31,valid,56,inhale,correct,0.343882499990286,P114
P114,0.31,valid,57,inhale,correct,0.388842500018654,P114
P114,-0.31,invalid,58,inhale,correct,0.36505729999044,P114
P114,0.31,invalid,59,inhale,correct,0.371863100008341,P114
P115,10,catch,0,inhale,correct,NA,P115
P115,10,catch,1,inhale,correct,NA,P115
P115,0.31,invalid,2,inhale,correct,0.50481710000895,P115
P115,0.31,invalid,3,inhale,correct,0.430317999998806,P115
P115,-0.31,valid,4,inhale,correct,0.410769499983871,P115
P115,-0.31,invalid,5,inhale,correct,0.461605499993311,P115
P115,0.31,valid,6,inhale,correct,0.382162599998992,P115
P115,-0.31,invalid,7,inhale,correct,0.387545400008094,P115
P115,-0.31,valid,8,inhale,correct,0.378407499985769,P115
P115,-0.31,invalid,9,inhale,correct,0.583683899982134,P115
P115,0.31,invalid,10,inhale,correct,0.420640300028026,P115
P115,-0.31,invalid,11,inhale,correct,0.523412700014887,P115
P115,0.31,valid,12,inhale,correct,0.49190950000775,P115
P115,10,catch,13,inhale,correct,NA,P115
P115,-0.31,invalid,14,inhale,correct,0.481394600006752,P115
P115,-0.31,valid,15,inhale,correct,0.42010129999835,P115
P115,10,catch,16,inhale,correct,NA,P115
P115,10,catch,17,inhale,correct,NA,P115
P115,0.31,invalid,18,inhale,correct,0.55814140001894,P115
P115,10,catch,19,inhale,correct,NA,P115
P115,0.31,invalid,20,inhale,correct,0.380656599998474,P115
P115,-0.31,valid,21,inhale,correct,0.634386200021254,P115
P115,0.31,valid,22,inhale,correct,0.450966100004734,P115
P115,-0.31,invalid,23,inhale,correct,0.472156300005736,P115
P115,0.31,valid,24,inhale,correct,0.414116900006775,P115
P115,-0.31,invalid,25,inhale,correct,0.397166500013554,P115
P115,-0.31,valid,26,inhale,correct,0.377477100002579,P115
P115,0.31,valid,27,inhale,correct,0.439967600017553,P115
P115,10,catch,28,inhale,correct,NA,P115
P115,0.31,valid,29,inhale,correct,0.484182600019267,P115
P115,0.31,valid,30,inhale,correct,0.461599700007355,P115
P115,-0.31,valid,31,inhale,correct,0.444571100000758,P115
P115,0.31,valid,32,inhale,correct,0.547691800020402,P115
P115,-0.31,invalid,33,inhale,correct,0.465089100005571,P115
P115,10,catch,34,inhale,correct,NA,P115
P115,0.31,valid,35,inhale,correct,0.530343300022651,P115
P115,-0.31,invalid,36,inhale,correct,0.418410699989181,P115
P115,0.31,invalid,37,inhale,correct,0.412274400005117,P115
P115,0.31,invalid,38,inhale,correct,0.377736700000241,P115
P115,0.31,valid,39,inhale,correct,0.523994399991352,P115
P115,0.31,invalid,40,inhale,correct,0.444321399991168,P115
P115,10,catch,41,inhale,correct,NA,P115
P115,-0.31,valid,42,inhale,correct,0.445013699994888,P115
P115,10,catch,43,inhale,correct,NA,P115
P115,0.31,invalid,44,inhale,correct,0.505240700003924,P115
P115,0.31,invalid,45,inhale,correct,0.549128800019389,P115
P115,0.31,valid,46,inhale,correct,0.555148100014776,P115
P115,-0.31,valid,47,inhale,correct,0.458675700007007,P115
P115,-0.31,invalid,48,inhale,correct,0.495238200004678,P115
P115,10,catch,49,inhale,correct,NA,P115
P115,-0.31,valid,50,inhale,correct,0.573226999986218,P115
P115,-0.31,valid,51,inhale,correct,0.525113899988355,P115
P115,-0.31,invalid,52,inhale,correct,0.486629199993331,P115
P115,-0.31,valid,53,inhale,correct,0.531975899997633,P115
P115,10,catch,54,inhale,correct,NA,P115
P115,0.31,invalid,55,inhale,correct,0.57829049997963,P115
P115,-0.31,valid,56,inhale,correct,0.61278460000176,P115
P115,0.31,valid,57,inhale,correct,0.556498299993109,P115
P115,-0.31,invalid,58,inhale,correct,0.697011099982774,P115
P115,0.31,invalid,59,inhale,correct,0.87606870001764,P115
P115,10,catch,0,exhale,correct,NA,P115
P115,10,catch,1,exhale,correct,NA,P115
P115,0.31,invalid,2,exhale,correct,0.423191500012763,P115
P115,0.31,invalid,3,exhale,correct,0.382717000000412,P115
P115,-0.31,valid,4,exhale,correct,0.29749670001911,P115
P115,-0.31,invalid,5,exhale,correct,0.398145799990743,P115
P115,0.31,valid,6,exhale,correct,0.4800389999873,P115
P115,-0.31,invalid,7,exhale,correct,0.34349449997535,P115
P115,-0.31,valid,8,exhale,correct,0.397753200028092,P115
P115,-0.31,invalid,9,exhale,correct,0.371008099988103,P115
P115,0.31,invalid,10,exhale,correct,0.373249500000384,P115
P115,-0.31,invalid,11,exhale,correct,0.442372799996519,P115
P115,0.31,valid,12,exhale,correct,0.535877200018149,P115
P115,10,catch,13,exhale,correct,NA,P115
P115,-0.31,invalid,14,exhale,correct,0.334155999997165,P115
P115,-0.31,valid,15,exhale,correct,0.414039399998728,P115
P115,10,catch,16,exhale,correct,NA,P115
P115,10,catch,17,exhale,correct,NA,P115
P115,0.31,invalid,18,exhale,correct,0.448528999986593,P115
P115,10,catch,19,exhale,correct,NA,P115
P115,0.31,invalid,20,exhale,correct,0.360541300004115,P115
P115,-0.31,valid,21,exhale,correct,0.478297299996484,P115
P115,0.31,valid,22,exhale,correct,0.44533550000051,P115
P115,-0.31,invalid,23,exhale,correct,0.463982799992664,P115
P115,0.31,valid,24,exhale,correct,0.441674699977739,P115
P115,-0.31,invalid,25,exhale,correct,0.446378100023139,P115
P115,-0.31,valid,26,exhale,correct,0.401130600017495,P115
P115,0.31,valid,27,exhale,correct,0.393565000005765,P115
P115,10,catch,28,exhale,correct,NA,P115
P115,0.31,valid,29,exhale,correct,0.435899699979927,P115
P115,0.31,valid,30,exhale,correct,0.429913400002988,P115
P115,-0.31,valid,31,exhale,correct,0.360911700001452,P115
P115,0.31,valid,32,exhale,correct,0.488973600004101,P115
P115,-0.31,invalid,33,exhale,correct,0.52664869997534,P115
P115,10,catch,34,exhale,correct,NA,P115
P115,0.31,valid,35,exhale,correct,0.377057300007436,P115
P115,-0.31,invalid,36,exhale,correct,0.476699599996209,P115
P115,0.31,invalid,37,exhale,correct,0.421170100016752,P115
P115,0.31,invalid,38,exhale,correct,0.442341199988732,P115
P115,0.31,valid,39,exhale,correct,0.450735199992778,P115
P115,0.31,invalid,40,exhale,correct,0.38255909999134,P115
P115,10,catch,41,exhale,correct,NA,P115
P115,-0.31,valid,42,exhale,correct,0.443478400004096,P115
P115,10,catch,43,exhale,correct,NA,P115
P115,0.31,invalid,44,exhale,correct,0.374539599986747,P115
P115,0.31,invalid,45,exhale,correct,0.987209599989001,P115
P115,0.31,valid,46,exhale,correct,0.43261580000398703,P115
P115,-0.31,valid,47,exhale,correct,0.482789000001503,P115
P115,-0.31,invalid,48,exhale,correct,0.368771899986314,P115
P115,10,catch,49,exhale,correct,NA,P115
P115,-0.31,valid,50,exhale,correct,0.336829700012458,P115
P115,-0.31,valid,51,exhale,correct,0.438285200012615,P115
P115,-0.31,invalid,52,exhale,correct,0.417300999979489,P115
P115,-0.31,valid,53,exhale,correct,0.365273200004594,P115
P115,10,catch,54,exhale,correct,NA,P115
P115,0.31,invalid,55,exhale,correct,0.447413099987898,P115
P115,-0.31,valid,56,exhale,correct,0.494367700011935,P115
P115,0.31,valid,57,exhale,correct,0.316558300022734,P115
P115,-0.31,invalid,58,exhale,correct,0.405238099978305,P115
P115,0.31,invalid,59,exhale,correct,0.432688900007633,P115
P116,10,catch,0,exhale,correct,NA,P116
P116,10,catch,1,exhale,correct,NA,P116
P116,0.31,invalid,2,exhale,correct,0.393974000005983,P116
P116,0.31,invalid,3,exhale,correct,0.411026000016136,P116
P116,-0.31,valid,4,exhale,correct,0.294637899991358,P116
P116,-0.31,invalid,5,exhale,correct,0.342999799991958,P116
P116,0.31,valid,6,exhale,correct,0.416417400003411,P116
P116,-0.31,invalid,7,exhale,correct,0.478649800003041,P116
P116,-0.31,valid,8,exhale,correct,0.296670700015966,P116
P116,-0.31,invalid,9,exhale,correct,0.510412799980259,P116
P116,0.31,invalid,10,exhale,correct,0.491366599977482,P116
P116,-0.31,invalid,11,exhale,correct,0.603590399987297,P116
P116,0.31,valid,12,exhale,correct,0.459164500003681,P116
P116,10,catch,13,exhale,incorrect,1.01242469999124,P116
P116,-0.31,invalid,14,exhale,correct,0.428302399988752,P116
P116,-0.31,valid,15,exhale,correct,0.339784799987683,P116
P116,10,catch,16,exhale,correct,NA,P116
P116,10,catch,17,exhale,correct,NA,P116
P116,0.31,invalid,18,exhale,correct,0.442641400004504,P116
P116,10,catch,19,exhale,correct,NA,P116
P116,0.31,invalid,20,exhale,correct,0.468933600001037,P116
