participant_ID,target_y,validity,trial,phase,response,rt,Participant
P101,10,catch,0,inhale,correct,NA,P101
P101,10,catch,1,inhale,correct,NA,P101
P101,0.31,invalid,2,inhale,correct,0.4367906999978,P101
P101,0.31,invalid,3,inhale,correct,0.454274000003352,P101
P101,-0.31,valid,4,inhale,correct,0.414176600010251,P101
P101,-0.31,invalid,5,inhale,correct,0.476943600006052,P101
P101,0.31,valid,6,inhale,correct,0.432016199993086,P101
P101,-0.31,invalid,7,inhale,correct,0.452882399986265,P101
P101,-0.31,valid,8,inhale,correct,0.484130399985588,P101
P101,-0.31,invalid,9,inhale,correct,0.419073800003389,P101
P101,0.31,invalid,10,inhale,correct,0.620422499996494,P101
P101,-0.31,invalid,11,inhale,correct,0.426979299998493,P101
P101,0.31,valid,12,inhale,correct,0.494277000005241,P101
P101,10,catch,13,inhale,correct,NA,P101
P101,-0.31,invalid,14,inhale,correct,0.444204799990985,P101
P101,-0.31,valid,15,inhale,correct,0.422121700001298,P101
P101,10,catch,16,inhale,correct,NA,P101
P101,10,catch,17,inhale,correct,NA,P101
P101,0.31,invalid,18,inhale,correct,0.540213100000983,P101
P101,10,catch,19,inhale,correct,NA,P101
P101,0.31,invalid,20,inhale,correct,0.407193000006373,P101
P101,-0.31,valid,21,inhale,correct,0.469396700005746,P101
P101,0.31,valid,22,inhale,correct,0.552698200001032,P101
P101,-0.31,invalid,23,inhale,correct,0.471015899995109,P101
P101,0.31,valid,24,inhale,correct,0.425652000005357,P101
P101,-0.31,invalid,25,inhale,correct,0.497729200011236,P101
P101,-0.31,valid,26,inhale,correct,0.454667099998915,P101
P101,0.31,valid,27,inhale,correct,0.590174099997967,P101
P101,10,catch,28,inhale,correct,NA,P101
P101,0.31,valid,29,inhale,correct,0.493221800003084,P101
P101,0.31,valid,30,inhale,correct,0.451329100003932,P101
P101,-0.31,valid,31,inhale,correct,0.468254699997487,P101
P101,0.31,valid,32,inhale,correct,0.428228800010402,P101
P101,-0.31,invalid,33,inhale,correct,0.420705299999099,P101
P101,10,catch,34,inhale,correct,NA,P101
P101,0.31,valid,35,inhale,correct,0.505910499996389,P101
P101,-0.31,invalid,36,inhale,correct,0.403098700000555,P101
P101,0.31,invalid,37,inhale,correct,0.492196599996532,P101
P101,0.31,invalid,38,inhale,correct,0.440875199987204,P101
P101,0.31,valid,39,inhale,correct,0.375327600006131,P101
P101,0.31,invalid,40,inhale,correct,0.436255000007804,P101
P101,10,catch,41,inhale,incorrect,0.293988999997964,P101
P101,-0.31,valid,42,inhale,correct,0.483392699999968,P101
P101,10,catch,43,inhale,correct,NA,P101
P101,0.31,invalid,44,inhale,correct,0.496538199993665,P101
P101,0.31,invalid,45,inhale,correct,0.49471430000267,P101
P101,0.31,valid,46,inhale,correct,0.440061899993452,P101
P101,-0.31,valid,47,inhale,correct,0.46394249999139,P101
P101,-0.31,invalid,48,inhale,correct,0.485664199994062,P101
P101,10,catch,49,inhale,correct,NA,P101
P101,-0.31,valid,50,inhale,correct,0.387670099997194,P101
P101,-0.31,valid,51,inhale,correct,0.434708200002206,P101
P101,-0.31,invalid,52,inhale,correct,0.443741100010811,P101
P101,-0.31,valid,53,inhale,correct,0.416547700006049,P101
P101,10,catch,54,inhale,correct,NA,P101
P101,0.31,invalid,55,inhale,correct,0.437230299998191,P101
P101,-0.31,valid,56,inhale,correct,0.429843799996888,P101
P101,0.31,valid,57,inhale,correct,0.41416030000255,P101
P101,-0.31,invalid,58,inhale,correct,0.421659100000397,P101
P101,0.31,invalid,59,inhale,correct,0.50878499999817,P101
P101,10,catch,0,exhale,correct,NA,P101
P101,10,catch,1,exhale,correct,NA,P101
P101,0.31,invalid,2,exhale,correct,0.468054299999494,P101
P101,0.31,invalid,3,exhale,correct,0.587648600005195,P101
P101,-0.31,valid,4,exhale,correct,0.439247600006638,P101
P101,-0.31,invalid,5,exhale,correct,0.46351620000496,P101
P101,0.31,valid,6,exhale,correct,0.434607100003632,P101
P101,-0.31,invalid,7,exhale,correct,0.432374099997105,P101
P101,-0.31,valid,8,exhale,correct,0.450703900001827,P101
P101,-0.31,invalid,9,exhale,correct,0.476051599995117,P101
P101,0.31,invalid,10,exhale,correct,0.479277799997362,P101
P101,-0.31,invalid,11,exhale,correct,0.478636000014376,P101
P101,0.31,valid,12,exhale,correct,0.397064899996622,P101
P101,10,catch,13,exhale,correct,NA,P101
P101,-0.31,invalid,14,exhale,correct,0.444242300000042,P101
P101,-0.31,valid,15,exhale,correct,0.455696600009105,P101
P101,10,catch,16,exhale,correct,NA,P101
P101,10,catch,17,exhale,correct,NA,P101
P101,0.31,invalid,18,exhale,correct,0.481060199992498,P101
P101,10,catch,19,exhale,correct,NA,P101
P101,0.31,invalid,20,exhale,correct,0.996579200000269,P101
P101,-0.31,valid,21,exhale,correct,0.887329500008491,P101
P101,0.31,valid,22,exhale,correct,0.690121999999974,P101
P101,-0.31,invalid,23,exhale,correct,1.08250689999841,P101
P101,0.31,valid,24,exhale,correct,0.542685199994594,P101
P101,-0.31,invalid,25,exhale,correct,0.455696400007582,P101
P101,-0.31,valid,26,exhale,correct,0.449386199994478,P101
P101,0.31,valid,27,exhale,correct,0.373332299990579,P101
P101,10,catch,28,exhale,correct,NA,P101
P101,0.31,valid,29,exhale,correct,0.548699600010877,P101
P101,0.31,valid,30,exhale,correct,0.845497200003592,P101
P101,-0.31,valid,31,exhale,correct,0.453848300006939,P101
P101,0.31,valid,32,exhale,correct,0.440293200008455,P101
P101,-0.31,invalid,33,exhale,correct,0.476785000006203,P101
P101,10,catch,34,exhale,correct,NA,P101
P101,0.31,valid,35,exhale,correct,0.479018800004269,P101
P101,-0.31,invalid,36,exhale,correct,0.47458789999655,P101
P101,0.31,invalid,37,exhale,correct,0.444189399990137,P101
P101,0.31,invalid,38,exhale,correct,0.469732500001555,P101
P101,0.31,valid,39,exhale,correct,0.654126199995517,P101
P101,0.31,invalid,40,exhale,correct,0.816190300000017,P101
P101,10,catch,41,exhale,correct,NA,P101
P101,-0.31,valid,42,exhale,correct,0.479214600010891,P101
P101,10,catch,43,exhale,correct,NA,P101
P101,0.31,invalid,44,exhale,correct,0.488337400005548,P101
P101,0.31,invalid,45,exhale,correct,0.432026900001802,P101
P101,0.31,valid,46,exhale,correct,0.469395199994324,P101
P101,-0.31,valid,47,exhale,correct,0.445511600002646,P101
P101,-0.31,invalid,48,exhale,correct,0.427253899993957,P101
P101,10,catch,49,exhale,correct,NA,P101
P101,-0.31,valid,50,exhale,correct,0.484669599987683,P101
P101,-0.31,valid,51,exhale,correct,0.531724500004202,P101
P101,-0.31,invalid,52,exhale,correct,0.505991199999698,P101
P101,-0.31,valid,53,exhale,correct,0.460195899999235,P101
P101,10,catch,54,exhale,correct,NA,P101
P101,0.31,invalid,55,exhale,correct,0.474210300002596,P101
P101,-0.31,valid,56,exhale,correct,0.496832900011213,P101
P101,0.31,valid,57,exhale,correct,0.388451100006932,P101
P101,-0.31,invalid,58,exhale,correct,0.455705800006399,P101
P101,0.31,invalid,59,exhale,correct,0.443093599998974,P101
P102,10,catch,0,inhale,correct,NA,P102
P102,10,catch,1,inhale,correct,NA,P102
P102,0.31,invalid,2,inhale,correct,0.416334900000948,P102
P102,0.31,invalid,3,inhale,correct,0.351655300008133,P102
P102,-0.31,valid,4,inhale,correct,0.330014899998787,P102
P102,-0.31,invalid,5,inhale,correct,0.415338299993891,P102
P102,0.31,valid,6,inhale,correct,0.376371699996525,P102
P102,-0.31,invalid,7,inhale,correct,0.296207600011257,P102
P102,-0.31,valid,8,inhale,correct,0.35752119999961,P102
P102,-0.31,invalid,9,inhale,correct,0.358312399999704,P102
P102,0.31,invalid,10,inhale,correct,0.315537300004507,P102
P102,-0.31,invalid,11,inhale,correct,0.428578999999445,P102
P102,0.31,valid,12,inhale,correct,0.37116490000335,P102
P102,10,catch,13,inhale,correct,NA,P102
P102,-0.31,invalid,14,inhale,correct,0.433168199990178,P102
P102,-0.31,valid,15,inhale,correct,0.407949000000372,P102
P102,10,catch,16,inhale,correct,NA,P102
P102,10,catch,17,inhale,correct,NA,P102
P102,0.31,invalid,18,inhale,correct,0.425710600000457,P102
P102,10,catch,19,inhale,correct,NA,P102
P102,0.31,invalid,20,inhale,correct,0.401611299996148,P102
P102,-0.31,valid,21,inhale,correct,0.38588639999216,P102
P102,0.31,valid,22,inhale,correct,0.399289799999679,P102
P102,-0.31,invalid,23,inhale,correct,0.463133400000515,P102
P102,0.31,valid,24,inhale,correct,0.398960400008946,P102
P102,-0.31,invalid,25,inhale,correct,0.357145300004049,P102
P102,-0.31,valid,26,inhale,correct,0.432485900004394,P102
P102,0.31,valid,27,inhale,correct,0.378353399995831,P102
P102,10,catch,28,inhale,correct,NA,P102
P102,0.31,valid,29,inhale,correct,0.391688999996404,P102
P102,0.31,valid,30,inhale,correct,0.373525699993479,P102
P102,-0.31,valid,31,inhale,correct,0.351627299998654,P102
P102,0.31,valid,32,inhale,correct,0.431543399987277,P102
P102,-0.31,invalid,33,inhale,correct,0.417065700006788,P102
P102,10,catch,34,inhale,incorrect,0.318222899993998,P102
P102,0.31,valid,35,inhale,correct,0.459087099996395,P102
P102,-0.31,invalid,36,inhale,correct,0.449186900004861,P102
P102,0.31,invalid,37,inhale,correct,0.568759300003876,P102
P102,0.31,invalid,38,inhale,correct,0.485805600008462,P102
P102,0.31,valid,39,inhale,correct,0.389917299995432,P102
P102,0.31,invalid,40,inhale,correct,0.425708999988274,P102
P102,10,catch,41,inhale,correct,NA,P102
P102,-0.31,valid,42,inhale,correct,0.422935399998096,P102
P102,10,catch,43,inhale,correct,NA,P102
P102,0.31,invalid,44,inhale,correct,0.435184300004039,P102
P102,0.31,invalid,45,inhale,correct,0.435558099998161,P102
P102,0.31,valid,46,inhale,correct,0.427638200009824,P102
P102,-0.31,valid,47,inhale,correct,0.353663600006257,P102
P102,-0.31,invalid,48,inhale,correct,0.418224100008956,P102
P102,10,catch,49,inhale,correct,NA,P102
P102,-0.31,valid,50,inhale,correct,0.419773399989936,P102
P102,-0.31,valid,51,inhale,correct,0.368862400006037,P102
P102,-0.31,invalid,52,inhale,correct,0.426577700010967,P102
P102,-0.31,valid,53,inhale,correct,0.470032000011997,P102
P102,10,catch,54,inhale,correct,NA,P102
P102,0.31,invalid,55,inhale,correct,0.469808099995134,P102
P102,-0.31,valid,56,inhale,correct,0.418943500000751,P102
P102,0.31,valid,57,inhale,correct,0.44196149999334,P102
P102,-0.31,invalid,58,inhale,correct,0.407081999990623,P102
P102,0.31,invalid,59,inhale,correct,0.410333599997102,P102
P102,10,catch,0,exhale,correct,NA,P102
P102,10,catch,1,exhale,correct,NA,P102
P102,0.31,invalid,2,exhale,correct,0.605212399997981,P102
P102,0.31,invalid,3,exhale,correct,0.417495699992287,P102
P102,-0.31,valid,4,exhale,correct,0.397611100008362,P102
P102,-0.31,invalid,5,exhale,correct,0.402148699999088,P102
P102,0.31,valid,6,exhale,correct,0.375853200006532,P102
P102,-0.31,invalid,7,exhale,correct,0.531557800000883,P102
P102,-0.31,valid,8,exhale,correct,0.399055400004727,P102
P102,-0.31,invalid,9,exhale,correct,0.426394699999946,P102
P102,0.31,invalid,10,exhale,correct,0.448305400001118,P102
P102,-0.31,invalid,11,exhale,correct,0.386000200000126,P102
P102,0.31,valid,12,exhale,correct,0.386336900002789,P102
P102,10,catch,13,exhale,correct,NA,P102
P102,-0.31,invalid,14,exhale,correct,0.491427999993903,P102
P102,-0.31,valid,15,exhale,correct,0.369200999994064,P102
P102,10,catch,16,exhale,correct,NA,P102
P102,10,catch,17,exhale,correct,NA,P102
P102,0.31,invalid,18,exhale,correct,0.434447599996929,P102
P102,10,catch,19,exhale,correct,NA,P102
P102,0.31,invalid,20,exhale,correct,0.539325100005954,P102
P102,-0.31,valid,21,exhale,correct,0.386158499997691,P102
P102,0.31,valid,22,exhale,correct,0.4282724000077,P102
P102,-0.31,invalid,23,exhale,correct,0.611991900004796,P102
P102,0.31,valid,24,exhale,correct,0.378404799994314,P102
P102,-0.31,invalid,25,exhale,correct,0.48943230000441,P102
P102,-0.31,valid,26,exhale,correct,0.428482400006033,P102
P102,0.31,valid,27,exhale,correct,0.413742899996578,P102
P102,10,catch,28,exhale,correct,NA,P102
P102,0.31,valid,29,exhale,correct,0.458283999993,P102
P102,0.31,valid,30,exhale,correct,0.372117899998557,P102
P102,-0.31,valid,31,exhale,correct,0.931370299993432,P102
P102,0.31,valid,32,exhale,correct,0.558669200006989,P102
P102,-0.31,invalid,33,exhale,correct,0.414384899995639,P102
P102,10,catch,34,exhale,correct,NA,P102
P102,0.31,valid,35,exhale,correct,0.485885200003395,P102
P102,-0.31,invalid,36,exhale,correct,0.432187500002328,P102
P102,0.31,invalid,37,exhale,correct,0.425281599993468,P102
P102,0.31,invalid,38,exhale,correct,0.440547999998671,P102
P102,0.31,valid,39,exhale,correct,0.478320599999279,P102
P102,0.31,invalid,40,exhale,correct,0.434914700002992,P102
P102,10,catch,41,exhale,correct,NA,P102
P102,-0.31,valid,42,exhale,correct,0.404905399991549,P102
P102,10,catch,43,exhale,correct,NA,P102
P102,0.31,invalid,44,exhale,correct,0.42132799999672,P102
P102,0.31,invalid,45,exhale,correct,0.470208800004912,P102
P102,0.31,valid,46,exhale,correct,0.39661330000672,P102
P102,-0.31,valid,47,exhale,correct,0.431019399999059,P102
P102,-0.31,invalid,48,exhale,correct,0.394645899999887,P102
P102,10,catch,49,exhale,correct,NA,P102
P102,-0.31,valid,50,exhale,correct,0.419162599995616,P102
P102,-0.31,valid,51,exhale,correct,0.524400099995546,P102
P102,-0.31,invalid,52,exhale,correct,0.607979599997634,P102
P102,-0.31,valid,53,exhale,correct,0.478479400000651,P102
P102,10,catch,54,exhale,correct,NA,P102
P102,0.31,invalid,55,exhale,correct,0.493202799989376,P102
P102,-0.31,valid,56,exhale,correct,0.436579400004121,P102
P102,0.31,valid,57,exhale,correct,0.387473099995987,P102
P102,-0.31,invalid,58,exhale,correct,0.441639600001508,P102
P102,0.31,invalid,59,exhale,correct,0.554614100008621,P102
P103,10,catch,0,exhale,correct,NA,P103
P103,10,catch,1,exhale,correct,NA,P103
P103,0.31,invalid,2,exhale,correct,0.410260899996501,P103
P103,0.31,invalid,3,exhale,correct,0.425447600006009,P103
P103,-0.31,valid,4,exhale,correct,0.433922699987306,P103
P103,-0.31,invalid,5,exhale,correct,0.426662500001839,P103
P103,0.31,valid,6,exhale,correct,0.417782899996382,P103
P103,-0.31,invalid,7,exhale,correct,0.495200100005604,P103
P103,-0.31,valid,8,exhale,correct,0.458223699999508,P103
P103,-0.31,invalid,9,exhale,correct,0.417147499989369,P103
P103,0.31,invalid,10,exhale,correct,0.465707800001837,P103
P103,-0.31,invalid,11,exhale,correct,0.397865300008561,P103
P103,0.31,valid,12,exhale,correct,0.386909799999557,P103
P103,10,catch,13,exhale,correct,NA,P103
P103,-0.31,invalid,14,exhale,correct,0.44935290000285,P103
P103,-0.31,valid,15,exhale,correct,0.460582100000465,P103
P103,10,catch,16,exhale,correct,NA,P103
P103,10,catch,17,exhale,correct,NA,P103
P103,0.31,invalid,18,exhale,correct,0.463938100001542,P103
P103,10,catch,19,exhale,correct,NA,P103
P103,0.31,invalid,20,exhale,correct,0.518378199994913,P103
P103,-0.31,valid,21,exhale,correct,0.390373000002,P103
P103,0.31,valid,22,exhale,correct,0.457139999998617,P103
P103,-0.31,invalid,23,exhale,correct,0.475278500001878,P103
P103,0.31,valid,24,exhale,correct,0.368081499997061,P103
P103,-0.31,invalid,25,exhale,correct,0.4947172000102,P103
P103,-0.31,valid,26,exhale,correct,0.384784899986698,P103
P103,0.31,valid,27,exhale,correct,0.34856879999279,P103
P103,10,catch,28,exhale,correct,NA,P103
P103,0.31,valid,29,exhale,correct,0.437717599997995,P103
P103,0.31,valid,30,exhale,correct,0.517234799990547,P103
P103,-0.31,valid,31,exhale,correct,0.494507900002645,P103
P103,0.31,valid,32,exhale,correct,0.473117700006696,P103
P103,-0.31,invalid,33,exhale,correct,0.422620599987567,P103
P103,10,catch,34,exhale,correct,NA,P103
P103,0.31,valid,35,exhale,correct,0.537010100000771,P103
P103,-0.31,invalid,36,exhale,correct,0.411909100002958,P103
P103,0.31,invalid,37,exhale,correct,0.417107299988857,P103
P103,0.31,invalid,38,exhale,correct,0.468864700000267,P103
P103,0.31,valid,39,exhale,correct,0.424906000000192,P103
P103,0.31,invalid,40,exhale,correct,0.524605200000224,P103
P103,10,catch,41,exhale,correct,NA,P103
P103,-0.31,valid,42,exhale,correct,0.502742299999227,P103
P103,10,catch,43,exhale,correct,NA,P103
P103,0.31,invalid,44,exhale,correct,0.501148399998783,P103
P103,0.31,invalid,45,exhale,correct,0.446197299999767,P103
P103,0.31,valid,46,exhale,correct,0.434408000000985,P103
P103,-0.31,valid,47,exhale,correct,0.398800299997674,P103
P103,-0.31,invalid,48,exhale,correct,0.505363799995393,P103
P103,10,catch,49,exhale,correct,NA,P103
P103,-0.31,valid,50,exhale,correct,0.589828600001056,P103
P103,-0.31,valid,51,exhale,correct,0.57729929999914,P103
P103,-0.31,invalid,52,exhale,correct,0.466484100004891,P103
P103,-0.31,valid,53,exhale,correct,0.594769900009851,P103
P103,10,catch,54,exhale,correct,NA,P103
P103,0.31,invalid,55,exhale,correct,0.490978499990888,P103
P103,-0.31,valid,56,exhale,correct,0.383375599994906,P103
P103,0.31,valid,57,exhale,correct,0.436506900005043,P103
P103,-0.31,invalid,58,exhale,correct,0.48807599999418,P103
P103,0.31,invalid,59,exhale,correct,0.432198199996492,P103
P103,10,catch,0,inhale,correct,NA,P103
P103,10,catch,1,inhale,correct,NA,P103
P103,0.31,invalid,2,inhale,correct,0.501614599997993,P103
P103,0.31,invalid,3,inhale,correct,0.471259700003429,P103
P103,-0.31,valid,4,inhale,correct,0.428089699998964,P103
P103,-0.31,invalid,5,inhale,correct,0.448483100000885,P103
P103,0.31,valid,6,inhale,correct,0.517145199992228,P103
P103,-0.31,invalid,7,inhale,correct,0.507586400010041,P103
P103,-0.31,valid,8,inhale,correct,0.37458260000858,P103
P103,-0.31,invalid,9,inhale,correct,0.417477199996938,P103
P103,0.31,invalid,10,inhale,correct,0.377696899988223,P103
P103,-0.31,invalid,11,inhale,correct,0.415940999999293,P103
P103,0.31,valid,12,inhale,correct,0.46020449999196,P103
P103,10,catch,13,inhale,correct,NA,P103
P103,-0.31,invalid,14,inhale,correct,0.431834999995772,P103
P103,-0.31,valid,15,inhale,correct,0.474445600004401,P103
P103,10,catch,16,inhale,correct,NA,P103
P103,10,catch,17,inhale,correct,NA,P103
P103,0.31,invalid,18,inhale,correct,0.466089900000952,P103
P103,10,catch,19,inhale,correct,NA,P103
P103,0.31,invalid,20,inhale,correct,0.441228199997568,P103
P103,-0.31,valid,21,inhale,correct,0.473220600004424,P103
P103,0.31,valid,22,inhale,correct,0.501534499999252,P103
P103,-0.31,invalid,23,inhale,correct,0.561369599992759,P103
P103,0.31,valid,24,inhale,correct,0.67225440000766,P103
P103,-0.31,invalid,25,inhale,correct,0.506424299994251,P103
P103,-0.31,valid,26,inhale,correct,1.08425919999718,P103
P103,0.31,valid,27,inhale,correct,0.46522620000178,P103
P103,10,catch,28,inhale,correct,NA,P103
P103,0.31,valid,29,inhale,correct,0.471483500004979,P103
P103,0.31,valid,30,inhale,correct,0.476578599991626,P103
P103,-0.31,valid,31,inhale,correct,0.40217210000264503,P103
P103,0.31,valid,32,inhale,correct,0.321071400001529,P103
P103,-0.31,invalid,33,inhale,correct,0.521111900001415,P103
P103,10,catch,34,inhale,correct,NA,P103
P103,0.31,valid,35,inhale,correct,0.433910899999319,P103
P103,-0.31,invalid,36,inhale,correct,0.507995100007975,P103
P103,0.31,invalid,37,inhale,correct,0.316678299990599,P103
P103,0.31,invalid,38,inhale,correct,0.454887899992173,P103
P103,0.31,valid,39,inhale,correct,0.360338099999353,P103
P103,0.31,invalid,40,inhale,correct,0.350787099989248,P103
P103,10,catch,41,inhale,correct,NA,P103
P103,-0.31,valid,42,inhale,correct,0.488343299992266,P103
P103,10,catch,43,inhale,correct,NA,P103
P103,0.31,invalid,44,inhale,correct,0.494941400000243,P103
P103,0.31,invalid,45,inhale,correct,0.466728100000182,P103
P103,0.31,valid,46,inhale,correct,0.452186899987282,P103
P103,-0.31,valid,47,inhale,correct,0.414598200004548,P103
P103,-0.31,invalid,48,inhale,correct,0.536146600003121,P103
P103,10,catch,49,inhale,correct,NA,P103
P103,-0.31,valid,50,inhale,correct,0.462474400002975,P103
P103,-0.31,valid,51,inhale,correct,0.300725199995213,P103
P103,-0.31,invalid,52,inhale,correct,0.505630200001178,P103
P103,-0.31,valid,53,inhale,correct,0.570428700011689,P103
P103,10,catch,54,inhale,correct,NA,P103
P103,0.31,invalid,55,inhale,correct,0.393021099996986,P103
P103,-0.31,valid,56,inhale,correct,0.49184800000512,P103
P103,0.31,valid,57,inhale,correct,0.492874200004735,P103
P103,-0.31,invalid,58,inhale,correct,0.463613199986867,P103
P103,0.31,invalid,59,inhale,correct,0.440847899997607,P103
P104,10,catch,0,exhale,correct,NA,P104
P104,10,catch,1,exhale,correct,NA,P104
P104,0.31,invalid,2,exhale,correct,0.394349900001544,P104
P104,0.31,invalid,3,exhale,correct,0.497007400001166,P104
P104,-0.31,valid,4,exhale,correct,0.448770099988906,P104
P104,-0.31,invalid,5,exhale,correct,0.415731699991738,P104
P104,0.31,valid,6,exhale,correct,0.357947100012098,P104
P104,-0.31,invalid,7,exhale,correct,0.371646300001885,P104
P104,-0.31,valid,8,exhale,correct,0.34910160000436,P104
P104,-0.31,invalid,9,exhale,correct,0.281236399998306,P104
P104,0.31,invalid,10,exhale,correct,0.397652899991954,P104
P104,-0.31,invalid,11,exhale,correct,0.377981700003147,P104
P104,0.31,valid,12,exhale,correct,0.676677800001926,P104
P104,10,catch,13,exhale,correct,NA,P104
P104,-0.31,invalid,14,exhale,correct,0.316243299996131,P104
P104,-0.31,valid,15,exhale,correct,0.580464899991057,P104
P104,10,catch,16,exhale,incorrect,0.306282299992745,P104
P104,10,catch,17,exhale,correct,NA,P104
P104,0.31,invalid,18,exhale,correct,0.442603999996209,P104
P104,10,catch,19,exhale,correct,NA,P104
P104,0.31,invalid,20,exhale,correct,0.398153500005719,P104
P104,-0.31,valid,21,exhale,correct,0.393071700003929,P104
P104,0.31,valid,22,exhale,correct,0.402169699998922,P104
P104,-0.31,invalid,23,exhale,correct,0.491309699995327,P104
P104,0.31,valid,24,exhale,correct,0.35035500000231,P104
P104,-0.31,invalid,25,exhale,correct,0.337610100003076,P104
P104,-0.31,valid,26,exhale,correct,0.405484100003378,P104
P104,0.31,valid,27,exhale,correct,0.360886499998742,P104
P104,10,catch,28,exhale,correct,NA,P104
P104,0.31,valid,29,exhale,correct,0.35785250000481,P104
P104,0.31,valid,30,exhale,correct,0.352235899990774,P104
P104,-0.31,valid,31,exhale,correct,0.348771899996791,P104
P104,0.31,valid,32,exhale,correct,0.354814699996496,P104
P104,-0.31,invalid,33,exhale,correct,0.370947000003071,P104
P104,10,catch,34,exhale,correct,NA,P104
P104,0.31,valid,35,exhale,correct,0.36809039999207,P104
P104,-0.31,invalid,36,exhale,correct,0.412572500004899,P104
P104,0.31,invalid,37,exhale,correct,0.378645599994343,P104
P104,0.31,invalid,38,exhale,correct,0.367460900000879,P104
P104,0.31,valid,39,exhale,correct,0.337759300004109,P104
P104,0.31,invalid,40,exhale,correct,0.534814400001778,P104
P104,10,catch,41,exhale,correct,NA,P104
P104,-0.31,valid,42,exhale,correct,0.384338800009573,P104
P104,10,catch,43,exhale,correct,NA,P104
P104,0.31,invalid,44,exhale,correct,0.357328700003563,P104
P104,0.31,invalid,45,exhale,correct,0.367251600007876,P104
P104,0.31,valid,46,exhale,correct,0.318476200001896,P104
P104,-0.31,valid,47,exhale,correct,0.433427199997823,P104
P104,-0.31,invalid,48,exhale,correct,0.445660600002157,P104
P104,10,catch,49,exhale,correct,NA,P104
P104,-0.31,valid,50,exhale,correct,0.364438400007202,P104
P104,-0.31,valid,51,exhale,correct,0.36801170000399003,P104
P104,-0.31,invalid,52,exhale,correct,0.544151599999168,P104
P104,-0.31,valid,53,exhale,correct,0.371312300005229,P104
P104,10,catch,54,exhale,correct,NA,P104
P104,0.31,invalid,55,exhale,correct,0.376906500008772,P104
P104,-0.31,valid,56,exhale,correct,0.37066159999813,P104
P104,0.31,valid,57,exhale,correct,0.36091660000965903,P104
P104,-0.31,invalid,58,exhale,correct,0.336630199992214,P104
P104,0.31,invalid,59,exhale,correct,0.503333000000566,P104
P104,10,catch,0,inhale,correct,NA,P104
P104,10,catch,1,inhale,correct,NA,P104
P104,0.31,invalid,2,inhale,correct,0.436159299992141,P104
P104,0.31,invalid,3,inhale,correct,0.389858299997286,P104
P104,-0.31,valid,4,inhale,correct,0.367296800002805,P104
P104,-0.31,invalid,5,inhale,correct,0.361421499997959,P104
P104,0.31,valid,6,inhale,correct,0.281622900001821,P104
P104,-0.31,invalid,7,inhale,correct,0.284178000001702,P104
P104,-0.31,valid,8,inhale,correct,0.311972900002729,P104
P104,-0.31,invalid,9,inhale,correct,0.250229500001296,P104
P104,0.31,invalid,10,inhale,correct,0.303495100000873,P104
P104,-0.31,invalid,11,inhale,correct,0.352818599989405,P104
P104,0.31,valid,12,inhale,correct,0.313998199999332,P104
P104,10,catch,13,inhale,incorrect,0.273493400003645,P104
P104,-0.31,invalid,14,inhale,correct,0.415689200002817,P104
P104,-0.31,valid,15,inhale,correct,0.360202000010759,P104
P104,10,catch,16,inhale,correct,NA,P104
P104,10,catch,17,inhale,correct,NA,P104
P104,0.31,invalid,18,inhale,correct,0.389110099989921,P104
P104,10,catch,19,inhale,correct,NA,P104
P104,0.31,invalid,20,inhale,correct,0.368867400000454,P104
P104,-0.31,valid,21,inhale,correct,0.330600599991158,P104
P104,0.31,valid,22,inhale,correct,0.382137000007788,P104
P104,-0.31,invalid,23,inhale,correct,0.386502900000778,P104
P104,0.31,valid,24,inhale,correct,0.34318899999198,P104
P104,-0.31,invalid,25,inhale,correct,0.267975599999772,P104
P104,-0.31,valid,26,inhale,correct,0.345234399996116,P104
P104,0.31,valid,27,inhale,correct,0.346192400000291,P104
P104,10,catch,28,inhale,incorrect,0.29480770000373,P104
P104,0.31,valid,29,inhale,correct,0.374637400003849,P104
P104,0.31,valid,30,inhale,correct,0.477163899995503,P104
P104,-0.31,valid,31,inhale,correct,0.335805199996685,P104
P104,0.31,valid,32,inhale,correct,0.324171800006297,P104
P104,-0.31,invalid,33,inhale,correct,0.328351099989959,P104
P104,10,catch,34,inhale,correct,NA,P104
P104,0.31,valid,35,inhale,correct,0.486973999999464,P104
P104,-0.31,invalid,36,inhale,correct,0.412001499993494,P104
P104,0.31,invalid,37,inhale,correct,0.359934399995836,P104
P104,0.31,invalid,38,inhale,correct,0.341757299989695,P104
P104,0.31,valid,39,inhale,correct,0.333600600002683,P104
P104,0.31,invalid,40,inhale,correct,0.366051200006041,P104
P104,10,catch,41,inhale,correct,NA,P104
P104,-0.31,valid,42,inhale,correct,0.456870999987586,P104
P104,10,catch,43,inhale,correct,NA,P104
P104,0.31,invalid,44,inhale,correct,0.477702300006058,P104
P104,0.31,invalid,45,inhale,correct,0.321660899993731,P104
P104,0.31,valid,46,inhale,correct,0.407406099999207,P104
P104,-0.31,valid,47,inhale,correct,0.360853199992562,P104
P104,-0.31,invalid,48,inhale,correct,0.306469000002835,P104
P104,10,catch,49,inhale,correct,NA,P104
P104,-0.31,valid,50,inhale,correct,0.461004799988586,P104
P104,-0.31,valid,51,inhale,correct,0.349344899994321,P104
P104,-0.31,invalid,52,inhale,correct,0.323145600006683,P104
P104,-0.31,valid,53,inhale,correct,0.424742300005164,P104
P104,10,catch,54,inhale,correct,NA,P104
P104,0.31,invalid,55,inhale,correct,0.354905200001667,P104
P104,-0.31,valid,56,inhale,correct,0.362959200007026,P104
P104,0.31,valid,57,inhale,correct,0.367871099995682,P104
P104,-0.31,invalid,58,inhale,correct,0.321654499988654,P104
P104,0.31,invalid,59,inhale,correct,0.288383700011764,P104
P105,10,catch,0,inhale,incorrect,0.285214099999848,P105
P105,10,catch,1,inhale,correct,NA,P105
P105,0.31,invalid,2,inhale,correct,0.382967600000029,P105
P105,0.31,invalid,3,inhale,correct,0.398009799999954,P105
P105,-0.31,valid,4,inhale,correct,0.821462099999962,P105
P105,-0.31,invalid,5,inhale,correct,0.392317800000001,P105
P105,0.31,valid,6,inhale,correct,0.383727500000077,P105
P105,-0.31,invalid,7,inhale,correct,0.367545999999948,P105
P105,-0.31,valid,8,inhale,correct,0.476511300000084,P105
P105,-0.31,invalid,9,inhale,correct,0.37604290000013,P105
P105,0.31,invalid,10,inhale,correct,0.424068000000034,P105
P105,-0.31,invalid,11,inhale,correct,0.334394399999837,P105
P105,0.31,valid,12,inhale,correct,0.40716180000004,P105
P105,10,catch,13,inhale,correct,NA,P105
P105,-0.31,invalid,14,inhale,correct,0.48768640000003,P105
P105,-0.31,valid,15,inhale,correct,0.313142700000071,P105
P105,10,catch,16,inhale,correct,NA,P105
P105,10,catch,17,inhale,incorrect,0.350632200000064,P105
P105,0.31,invalid,18,inhale,correct,0.43232369999987,P105
P105,10,catch,19,inhale,correct,NA,P105
P105,0.31,invalid,20,inhale,correct,0.515311399999973,P105
P105,-0.31,valid,21,inhale,correct,0.519559799999797,P105
P105,0.31,valid,22,inhale,correct,0.576425999999856,P105
P105,-0.31,invalid,23,inhale,correct,0.329576599999882,P105
P105,0.31,valid,24,inhale,correct,0.856605400000035,P105
P105,-0.31,invalid,25,inhale,correct,0.40207549999991,P105
P105,-0.31,valid,26,inhale,correct,0.432894999999917,P105
P105,0.31,valid,27,inhale,correct,0.351250599999958,P105
P105,10,catch,28,inhale,correct,NA,P105
P105,0.31,valid,29,inhale,correct,0.440961399999878,P105
P105,0.31,valid,30,inhale,correct,0.48823999999990503,P105
P105,-0.31,valid,31,inhale,correct,0.465544300000147,P105
P105,0.31,valid,32,inhale,correct,0.388383700000077,P105
P105,-0.31,invalid,33,inhale,correct,0.388809000000037,P105
P105,10,catch,34,inhale,correct,NA,P105
P105,0.31,valid,35,inhale,correct,0.375399800000196,P105
P105,-0.31,invalid,36,inhale,correct,0.364921200000026,P105
P105,0.31,invalid,37,inhale,correct,0.370287200000121,P105
P105,0.31,invalid,38,inhale,correct,0.567039699999896,P105
P105,0.31,valid,39,inhale,correct,0.487632700000177,P105
P105,0.31,invalid,40,inhale,correct,0.565266500000007,P105
P105,10,catch,41,inhale,correct,NA,P105
P105,-0.31,valid,42,inhale,correct,0.418559899999991,P105
P105,10,catch,43,inhale,correct,NA,P105
P105,0.31,invalid,44,inhale,correct,0.371169399999872,P105
P105,0.31,invalid,45,inhale,correct,0.437357600000041,P105
P105,0.31,valid,46,inhale,correct,0.407786800000167,P105
P105,-0.31,valid,47,inhale,correct,0.377493500000128,P105
P105,-0.31,invalid,48,inhale,correct,0.367463000000043,P105
P105,10,catch,49,inhale,correct,NA,P105
P105,-0.31,valid,50,inhale,correct,0.396101199999976,P105
P105,-0.31,valid,51,inhale,correct,0.384326899999905,P105
P105,-0.31,invalid,52,inhale,correct,0.478719700000056,P105
P105,-0.31,valid,53,inhale,correct,0.356732300000203,P105
P105,10,catch,54,inhale,correct,NA,P105
P105,0.31,invalid,55,inhale,correct,0.418047800000068,P105
P105,-0.31,valid,56,inhale,correct,0.479339399999844,P105
P105,0.31,valid,57,inhale,correct,0.652160500000036,P105
P105,-0.31,invalid,58,inhale,correct,0.410998700000164,P105
P105,0.31,invalid,59,inhale,correct,0.438770099999829,P105
P105,10,catch,0,exhale,correct,NA,P105
P105,10,catch,1,exhale,correct,NA,P105
P105,0.31,invalid,2,exhale,correct,0.498248299999887,P105
P105,0.31,invalid,3,exhale,correct,0.385781100000031,P105
P105,-0.31,valid,4,exhale,correct,0.344467800000075,P105
P105,-0.31,invalid,5,exhale,correct,0.312294300000076,P105
P105,0.31,valid,6,exhale,correct,0.3384266999999,P105
P105,-0.31,invalid,7,exhale,correct,0.650581500000044,P105
P105,-0.31,valid,8,exhale,correct,0.439853400000175,P105
P105,-0.31,invalid,9,exhale,correct,0.45005859999992,P105
P105,0.31,invalid,10,exhale,correct,1.02621569999997,P105
P105,-0.31,invalid,11,exhale,correct,0.392306499999904,P105
P105,0.31,valid,12,exhale,correct,0.287705599999981,P105
P105,10,catch,13,exhale,incorrect,0.267437799999925,P105
P105,-0.31,invalid,14,exhale,correct,0.399104500000021,P105
P105,-0.31,valid,15,exhale,correct,0.552915199999916,P105
P105,10,catch,16,exhale,correct,NA,P105
P105,10,catch,17,exhale,correct,NA,P105
P105,0.31,invalid,18,exhale,correct,0.932521900000211,P105
P105,10,catch,19,exhale,correct,NA,P105
P105,0.31,invalid,20,exhale,correct,0.461933099999897,P105
P105,-0.31,valid,21,exhale,correct,0.422040700000025,P105
P105,0.31,valid,22,exhale,correct,0.334362600000077,P105
P105,-0.31,invalid,23,exhale,correct,0.390308199999936,P105
P105,0.31,valid,24,exhale,correct,0.405006100000037,P105
P105,-0.31,invalid,25,exhale,correct,0.394129300000031,P105
P105,-0.31,valid,26,exhale,correct,0.33408929999996,P105
P105,0.31,valid,27,exhale,correct,0.314972599999919,P105
P105,10,catch,28,exhale,correct,NA,P105
P105,0.31,valid,29,exhale,correct,0.487777800000003,P105
P105,0.31,valid,30,exhale,correct,0.352555000000166,P105
P105,-0.31,valid,31,exhale,correct,0.449307099999942,P105
P105,0.31,valid,32,exhale,correct,0.639814000000115,P105
P105,-0.31,invalid,33,exhale,correct,0.324951399999918,P105
P105,10,catch,34,exhale,correct,NA,P105
P105,0.31,valid,35,exhale,correct,0.45507079999993,P105
P105,-0.31,invalid,36,exhale,correct,0.375303399999893,P105
P105,0.31,invalid,37,exhale,correct,0.419338100000004,P105
P105,0.31,invalid,38,exhale,correct,0.541324499999973,P105
P105,0.31,valid,39,exhale,correct,0.325957900000049,P105
P105,0.31,invalid,40,exhale,correct,0.39978229999997,P105
P105,10,catch,41,exhale,correct,NA,P105
P105,-0.31,valid,42,exhale,correct,0.403664500000104,P105
P105,10,catch,43,exhale,correct,NA,P105
P105,0.31,invalid,44,exhale,correct,0.581652100000156,P105
P105,0.31,invalid,45,exhale,correct,0.537633299999925,P105
P105,0.31,valid,46,exhale,correct,0.91723809999985,P105
P105,-0.31,valid,47,exhale,correct,0.389474800000244,P105
P105,-0.31,invalid,48,exhale,correct,0.578138200000012,P105
P105,10,catch,49,exhale,correct,NA,P105
P105,-0.31,valid,50,exhale,correct,0.412012100000084,P105
P105,-0.31,valid,51,exhale,correct,0.369459300000017,P105
P105,-0.31,invalid,52,exhale,correct,0.409840400000121,P105
P105,-0.31,valid,53,exhale,correct,0.492052199999762,P105
P105,10,catch,54,exhale,correct,NA,P105
P105,0.31,invalid,55,exhale,correct,0.383172800000011,P105
P105,-0.31,valid,56,exhale,correct,0.448169100000086,P105
P105,0.31,valid,57,exhale,correct,0.393202799999926,P105
P105,-0.31,invalid,58,exhale,correct,0.394663900000069,P105
P105,0.31,invalid,59,exhale,correct,0.424574699999994,P105
P106,10,catch,0,inhale,correct,NA,P106
P106,10,catch,1,inhale,correct,NA,P106
P106,0.31,invalid,2,inhale,correct,0.45443990000058,P106
P106,0.31,invalid,3,inhale,correct,0.595285100000183,P106
P106,-0.31,valid,4,inhale,correct,0.411220400000275,P106
P106,-0.31,invalid,5,inhale,correct,0.499084500000208,P106
P106,0.31,valid,6,inhale,correct,0.403229000000465,P106
P106,-0.31,invalid,7,inhale,correct,0.318300800000543,P106
P106,-0.31,valid,8,inhale,correct,0.498496400000477,P106
P106,-0.31,invalid,9,inhale,correct,0.401629300000423,P106
P106,0.31,invalid,10,inhale,correct,0.347870900000089,P106
P106,-0.31,invalid,11,inhale,correct,0.354107000000113,P106
P106,0.31,valid,12,inhale,correct,0.397713400000612,P106
P106,10,catch,13,inhale,correct,NA,P106
P106,-0.31,invalid,14,inhale,correct,0.30474200000026,P106
P106,-0.31,valid,15,inhale,correct,0.341007800000625,P106
P106,10,catch,16,inhale,correct,NA,P106
P106,10,catch,17,inhale,correct,NA,P106
P106,0.31,invalid,18,inhale,correct,0.367000000000189,P106
P106,10,catch,19,inhale,incorrect,0.276169499999924,P106
P106,0.31,invalid,20,inhale,correct,0.407533800000238,P106
P106,-0.31,valid,21,inhale,correct,0.382000200000221,P106
P106,0.31,valid,22,inhale,correct,0.340741199999684,P106
P106,-0.31,invalid,23,inhale,incorrect,NA,P106
P106,0.31,valid,24,inhale,correct,0.566884100000607,P106
P106,-0.31,invalid,25,inhale,correct,0.357249200000297,P106
P106,-0.31,valid,26,inhale,correct,0.411563799999385,P106
P106,0.31,valid,27,inhale,correct,1.79557599999953,P106
P106,10,catch,28,inhale,correct,NA,P106
P106,0.31,valid,29,inhale,correct,0.337587600000006,P106
P106,0.31,valid,30,inhale,correct,0.369019699999626,P106
P106,-0.31,valid,31,inhale,correct,0.395790900000065,P106
P106,0.31,valid,32,inhale,correct,0.371633099999599,P106
P106,-0.31,invalid,33,inhale,correct,0.483963200000289,P106
P106,10,catch,34,inhale,correct,NA,P106
P106,0.31,valid,35,inhale,correct,0.336760600000162,P106
P106,-0.31,invalid,36,inhale,correct,0.358705000000555,P106
P106,0.31,invalid,37,inhale,correct,0.376505500000349,P106
P106,0.31,invalid,38,inhale,correct,0.2862697999999,P106
P106,0.31,valid,39,inhale,correct,0.420802900000126,P106
P106,0.31,invalid,40,inhale,correct,0.397115599999779,P106
P106,10,catch,41,inhale,correct,NA,P106
P106,-0.31,valid,42,inhale,correct,0.379190100000415,P106
P106,10,catch,43,inhale,correct,NA,P106
P106,0.31,invalid,44,inhale,correct,0.389869900000122,P106
P106,0.31,invalid,45,inhale,correct,0.348837700000331,P106
P106,0.31,valid,46,inhale,correct,0.403802800000449,P106
P106,-0.31,valid,47,inhale,correct,0.418752099999438,P106
P106,-0.31,invalid,48,inhale,correct,0.369543400000111,P106
P106,10,catch,49,inhale,correct,NA,P106
P106,-0.31,valid,50,inhale,correct,0.381133599999885,P106
P106,-0.31,valid,51,inhale,correct,0.278491899999608,P106
P106,-0.31,invalid,52,inhale,correct,0.53791960000035,P106
P106,-0.31,valid,53,inhale,correct,0.397765400000026,P106
P106,10,catch,54,inhale,correct,NA,P106
P106,0.31,invalid,55,inhale,correct,0.423357200000282,P106
P106,-0.31,valid,56,inhale,correct,0.425698500000181,P106
P106,0.31,valid,57,inhale,incorrect,NA,P106
P106,-0.31,invalid,58,inhale,correct,0.544169799999509,P106
P106,0.31,invalid,59,inhale,correct,0.366722499999923,P106
P106,10,catch,0,exhale,correct,NA,P106
P106,10,catch,1,exhale,correct,NA,P106
P106,0.31,invalid,2,exhale,correct,0.429045500000029,P106
P106,0.31,invalid,3,exhale,correct,0.364856400000463,P106
P106,-0.31,valid,4,exhale,correct,0.916487999999845,P106
P106,-0.31,invalid,5,exhale,correct,0.355923500000245,P106
P106,0.31,valid,6,exhale,correct,0.328161800000089,P106
P106,-0.31,invalid,7,exhale,correct,0.360800399999789,P106
P106,-0.31,valid,8,exhale,correct,0.362159600000268,P106
P106,-0.31,invalid,9,exhale,correct,0.354497400000582,P106
P106,0.31,invalid,10,exhale,correct,0.349448899999516,P106
P106,-0.31,invalid,11,exhale,correct,0.656381299999339,P106
P106,0.31,valid,12,exhale,correct,0.382191499999863,P106
P106,10,catch,13,exhale,correct,NA,P106
P106,-0.31,invalid,14,exhale,correct,0.270028699999784,P106
P106,-0.31,valid,15,exhale,correct,0.496302599999581,P106
P106,10,catch,16,exhale,correct,NA,P106
P106,10,catch,17,exhale,correct,NA,P106
P106,0.31,invalid,18,exhale,correct,0.376387599999362,P106
P106,10,catch,19,exhale,correct,NA,P106
P106,0.31,invalid,20,exhale,correct,0.387197600000036,P106
P106,-0.31,valid,21,exhale,correct,0.414058700000169,P106
P106,0.31,valid,22,exhale,correct,0.378447600000072,P106
P106,-0.31,invalid,23,exhale,correct,0.42082819999996,P106
P106,0.31,valid,24,exhale,correct,0.779326599999877,P106
P106,-0.31,invalid,25,exhale,correct,0.24679980000019,P106
P106,-0.31,valid,26,exhale,correct,0.35310440000012,P106
P106,0.31,valid,27,exhale,correct,0.435179199999766,P106
P106,10,catch,28,exhale,correct,NA,P106
P106,0.31,valid,29,exhale,correct,0.363357000000178,P106
P106,0.31,valid,30,exhale,correct,0.404756199999611,P106
P106,-0.31,valid,31,exhale,correct,0.320002599999498,P106
P106,0.31,valid,32,exhale,correct,0.603677799999787,P106
P106,-0.31,invalid,33,exhale,correct,0.370898199999829,P106
P106,10,catch,34,exhale,correct,NA,P106
P106,0.31,valid,35,exhale,correct,0.351006300000336,P106
P106,-0.31,invalid,36,exhale,correct,0.329497699999592,P106
P106,0.31,invalid,37,exhale,correct,0.369027199999437,P106
P106,0.31,invalid,38,exhale,correct,0.355910100000074,P106
P106,0.31,valid,39,exhale,correct,0.449245800000426,P106
P106,0.31,invalid,40,exhale,correct,0.344716800000242,P106
P106,10,catch,41,exhale,correct,NA,P106
P106,-0.31,valid,42,exhale,correct,0.481040399999983,P106
P106,10,catch,43,exhale,correct,NA,P106
P106,0.31,invalid,44,exhale,correct,0.542390300000079,P106
P106,0.31,invalid,45,exhale,correct,1.14543709999998,P106
P106,0.31,valid,46,exhale,correct,0.434054800000013,P106
P106,-0.31,valid,47,exhale,correct,0.335368999999446,P106
P106,-0.31,invalid,48,exhale,correct,0.430661200000031,P106
P106,10,catch,49,exhale,correct,NA,P106
P106,-0.31,valid,50,exhale,correct,0.398134000000937,P106
P106,-0.31,valid,51,exhale,correct,0.545937799999592,P106
P106,-0.31,invalid,52,exhale,correct,0.435755000000427,P106
P106,-0.31,valid,53,exhale,correct,0.476319100000183,P106
P106,10,catch,54,exhale,correct,NA,P106
P106,0.31,invalid,55,exhale,correct,0.506590999999389,P106
P106,-0.31,valid,56,exhale,correct,0.5369326,P106
P106,0.31,valid,57,exhale,correct,0.490532499999972,P106
P106,-0.31,invalid,58,exhale,correct,0.541653399999632,P106
P106,0.31,invalid,59,exhale,correct,0.681676700000025,P106
P107,10,catch,0,exhale,correct,NA,P107
P107,10,catch,1,exhale,correct,NA,P107
P107,0.31,invalid,2,exhale,correct,0.389084399999774,P107
P107,0.31,invalid,3,exhale,correct,0.382616099999723,P107
P107,-0.31,valid,4,exhale,correct,0.38564469999983,P107
P107,-0.31,invalid,5,exhale,correct,0.376227100001415,P107
P107,0.31,valid,6,exhale,correct,0.395649600000979,P107
P107,-0.31,invalid,7,exhale,correct,0.345195500000045,P107
P107,-0.31,valid,8,exhale,correct,0.399111400000038,P107
P107,-0.31,invalid,9,exhale,correct,0.468145700000605,P107
P107,0.31,invalid,10,exhale,correct,0.377695600000152,P107
P107,-0.31,invalid,11,exhale,correct,0.352820699999938,P107
P107,0.31,valid,12,exhale,correct,0.373574799999915,P107
P107,10,catch,13,exhale,correct,NA,P107
P107,-0.31,invalid,14,exhale,correct,0.415967599999931,P107
P107,-0.31,valid,15,exhale,correct,0.496487399999751,P107
P107,10,catch,16,exhale,correct,NA,P107
P107,10,catch,17,exhale,correct,NA,P107
P107,0.31,invalid,18,exhale,correct,0.546134899999743,P107
P107,10,catch,19,exhale,correct,NA,P107
P107,0.31,invalid,20,exhale,correct,0.252696300000025,P107
P107,-0.31,valid,21,exhale,correct,0.465135699998427,P107
P107,0.31,valid,22,exhale,correct,0.529285900000104,P107
P107,-0.31,invalid,23,exhale,correct,0.244636999999784,P107
P107,0.31,valid,24,exhale,correct,0.21766739999839,P107
P107,-0.31,invalid,25,exhale,correct,0.287529400000494,P107
P107,-0.31,valid,26,exhale,correct,0.258107200001177,P107
P107,0.31,valid,27,exhale,correct,0.265685200000007,P107
P107,10,catch,28,exhale,incorrect,0.267399000000296,P107
P107,0.31,valid,29,exhale,correct,0.253944199999751,P107
P107,0.31,valid,30,exhale,correct,0.356402499999604,P107
P107,-0.31,valid,31,exhale,correct,0.355266700000357,P107
P107,0.31,valid,32,exhale,correct,0.337094000000434,P107
P107,-0.31,invalid,33,exhale,correct,0.414269499999136,P107
P107,10,catch,34,exhale,correct,NA,P107
P107,0.31,valid,35,exhale,correct,0.38309929999923,P107
P107,-0.31,invalid,36,exhale,correct,0.442212299998573,P107
P107,0.31,invalid,37,exhale,correct,0.318053499999223,P107
P107,0.31,invalid,38,exhale,correct,0.427743899999768,P107
P107,0.31,valid,39,exhale,correct,0.335163600000669,P107
P107,0.31,invalid,40,exhale,correct,0.355098300000463,P107
P107,10,catch,41,exhale,correct,NA,P107
P107,-0.31,valid,42,exhale,correct,0.338962899999387,P107
P107,10,catch,43,exhale,correct,NA,P107
P107,0.31,invalid,44,exhale,correct,0.411340599999676,P107
P107,0.31,invalid,45,exhale,correct,0.355690700000196,P107
P107,0.31,valid,46,exhale,correct,0.48022200000014,P107
P107,-0.31,valid,47,exhale,correct,0.396348500000386,P107
P107,-0.31,invalid,48,exhale,correct,0.437355099998967,P107
P107,10,catch,49,exhale,correct,NA,P107
P107,-0.31,valid,50,exhale,correct,0.380200699999477,P107
P107,-0.31,valid,51,exhale,correct,0.415169400001105,P107
P107,-0.31,invalid,52,exhale,correct,0.427624900001319,P107
P107,-0.31,valid,53,exhale,correct,0.389100899999903,P107
P107,10,catch,54,exhale,correct,NA,P107
P107,0.31,invalid,55,exhale,correct,0.500843700001496,P107
P107,-0.31,valid,56,exhale,correct,0.404126999999789,P107
P107,0.31,valid,57,exhale,correct,0.489034899999751,P107
P107,-0.31,invalid,58,exhale,correct,0.382001500000115,P107
P107,0.31,invalid,59,exhale,correct,0.4940942000012,P107
P107,10,catch,0,inhale,correct,NA,P107
P107,10,catch,1,inhale,correct,NA,P107
P107,0.31,invalid,2,inhale,correct,0.574504899999738,P107
P107,0.31,invalid,3,inhale,correct,0.409226699999635,P107
P107,-0.31,valid,4,inhale,correct,0.38485159999982,P107
P107,-0.31,invalid,5,inhale,correct,0.374875200001043,P107
P107,0.31,valid,6,inhale,correct,0.436988100000235,P107
P107,-0.31,invalid,7,inhale,correct,0.367733799999769,P107
P107,-0.31,valid,8,inhale,correct,0.387269700000616,P107
P107,-0.31,invalid,9,inhale,correct,0.413733399998819,P107
P107,0.31,invalid,10,inhale,correct,0.386224399999264,P107
P107,-0.31,invalid,11,inhale,correct,0.449236700000256,P107
P107,0.31,valid,12,inhale,correct,0.401920099999188,P107
P107,10,catch,13,inhale,correct,NA,P107
P107,-0.31,invalid,14,inhale,correct,0.498060999998415,P107
P107,-0.31,valid,15,inhale,correct,0.471300499999415,P107
P107,10,catch,16,inhale,correct,NA,P107
P107,10,catch,17,inhale,correct,NA,P107
P107,0.31,invalid,18,inhale,correct,0.39607210000031,P107
P107,10,catch,19,inhale,correct,NA,P107
P107,0.31,invalid,20,inhale,correct,0.414843900000051,P107
P107,-0.31,valid,21,inhale,correct,0.612932199999705,P107
P107,0.31,valid,22,inhale,correct,0.380433899999844,P107
P107,-0.31,invalid,23,inhale,correct,0.290688600000067,P107
P107,0.31,valid,24,inhale,correct,0.309674200001609,P107
P107,-0.31,invalid,25,inhale,correct,0.480507599999328,P107
P107,-0.31,valid,26,inhale,correct,0.429778200001238,P107
P107,0.31,valid,27,inhale,correct,0.456369600000471,P107
P107,10,catch,28,inhale,correct,NA,P107
P107,0.31,valid,29,inhale,correct,0.338942999998835,P107
P107,0.31,valid,30,inhale,correct,0.314326400000937,P107
P107,-0.31,valid,31,inhale,correct,0.369446600001538,P107
P107,0.31,valid,32,inhale,correct,0.345348499999091,P107
P107,-0.31,invalid,33,inhale,correct,0.374357700000473,P107
P107,10,catch,34,inhale,correct,NA,P107
P107,0.31,valid,35,inhale,correct,0.378212100000383,P107
P107,-0.31,invalid,36,inhale,correct,0.42779199999859,P107
P107,0.31,invalid,37,inhale,correct,0.376263699999981,P107
P107,0.31,invalid,38,inhale,correct,0.37420879999990603,P107
P107,0.31,valid,39,inhale,correct,0.386957400000028,P107
P107,0.31,invalid,40,inhale,correct,0.415667000001122,P107
P107,10,catch,41,inhale,correct,NA,P107
P107,-0.31,valid,42,inhale,correct,0.355124399999113,P107
P107,10,catch,43,inhale,correct,NA,P107
P107,0.31,invalid,44,inhale,correct,0.38545090000116,P107
P107,0.31,invalid,45,inhale,correct,0.348747100000764,P107
P107,0.31,valid,46,inhale,correct,0.52893579999909,P107
P107,-0.31,valid,47,inhale,correct,0.492978799999037,P107
P107,-0.31,invalid,48,inhale,correct,0.427623399998993,P107
P107,10,catch,49,inhale,correct,NA,P107
P107,-0.31,valid,50,inhale,correct,0.428360100000646,P107
P107,-0.31,valid,51,inhale,correct,0.582098899998527,P107
P107,-0.31,invalid,52,inhale,correct,0.522400200001357,P107
P107,-0.31,valid,53,inhale,correct,0.483875999998418,P107
P107,10,catch,54,inhale,correct,NA,P107
P107,0.31,invalid,55,inhale,correct,0.395538400000078,P107
P107,-0.31,valid,56,inhale,correct,0.335851900001217,P107
P107,0.31,valid,57,inhale,correct,0.416218100001061,P107
P107,-0.31,invalid,58,inhale,correct,0.440742099999625,P107
P107,0.31,invalid,59,inhale,correct,0.381165099999635,P107
P108,10,catch,0,exhale,correct,NA,P108
P108,10,catch,1,exhale,incorrect,0.37793579999925,P108
P108,0.31,invalid,2,exhale,correct,0.621563700002298,P108
P108,0.31,invalid,3,exhale,correct,0.335554200002662,P108
P108,-0.31,valid,4,exhale,correct,0.379416300002049,P108
P108,-0.31,invalid,5,exhale,correct,0.225189000000682,P108
P108,0.31,valid,6,exhale,correct,0.311326200000622,P108
P108,-0.31,invalid,7,exhale,correct,0.303938500001095,P108
P108,-0.31,valid,8,exhale,correct,0.294626399998378,P108
P108,-0.31,invalid,9,exhale,correct,0.266034799999034,P108
P108,0.31,invalid,10,exhale,correct,0.388043099999777,P108
P108,-0.31,invalid,11,exhale,correct,0.456864200001291,P108
P108,0.31,valid,12,exhale,correct,0.411822199999733,P108
P108,10,catch,13,exhale,incorrect,0.364172199999302,P108
P108,-0.31,invalid,14,exhale,correct,0.310601700002735,P108
P108,-0.31,valid,15,exhale,correct,0.578010600002017,P108
P108,10,catch,16,exhale,correct,NA,P108
P108,10,catch,17,exhale,correct,NA,P108
P108,0.31,invalid,18,exhale,correct,0.385437699998874,P108
P108,10,catch,19,exhale,correct,NA,P108
P108,0.31,invalid,20,exhale,correct,0.382146899999498,P108
P108,-0.31,valid,21,exhale,correct,0.389316599997983,P108
P108,0.31,valid,22,exhale,correct,0.4783643999981,P108
P108,-0.31,invalid,23,exhale,correct,0.463815600000089,P108
P108,0.31,valid,24,exhale,correct,0.385118199999852,P108
P108,-0.31,invalid,25,exhale,correct,0.846973300001991,P108
P108,-0.31,valid,26,exhale,correct,0.344205900000816,P108
P108,0.31,valid,27,exhale,correct,0.434022299999924,P108
P108,10,catch,28,exhale,incorrect,0.279512799999793,P108
P108,0.31,valid,29,exhale,correct,0.457568400001037,P108
P108,0.31,valid,30,exhale,correct,0.309537299999647,P108
P108,-0.31,valid,31,exhale,correct,0.381248000001506,P108
P108,0.31,valid,32,exhale,correct,0.349229400002514,P108
P108,-0.31,invalid,33,exhale,correct,0.315721899998607,P108
P108,10,catch,34,exhale,correct,NA,P108
P108,0.31,valid,35,exhale,correct,0.478880700000445,P108
P108,-0.31,invalid,36,exhale,correct,0.423497799998586,P108
P108,0.31,invalid,37,exhale,correct,0.582185999999638,P108
P108,0.31,invalid,38,exhale,correct,0.336212000001979,P108
P108,0.31,valid,39,exhale,correct,0.486462600001687,P108
P108,0.31,invalid,40,exhale,correct,0.388047299999016,P108
P108,10,catch,41,exhale,incorrect,0.284541899996839,P108
P108,-0.31,valid,42,exhale,correct,0.550617900000361,P108
P108,10,catch,43,exhale,correct,NA,P108
P108,0.31,invalid,44,exhale,correct,0.300032899998769,P108
P108,0.31,invalid,45,exhale,correct,0.336360400000558,P108
P108,0.31,valid,46,exhale,correct,0.357631799997762,P108
P108,-0.31,valid,47,exhale,correct,0.344465300000593,P108
P108,-0.31,invalid,48,exhale,correct,0.324445400001423,P108
P108,10,catch,49,exhale,incorrect,0.306778400001349,P108
P108,-0.31,valid,50,exhale,correct,0.569870200000878,P108
P108,-0.31,valid,51,exhale,correct,0.378974799998105,P108
P108,-0.31,invalid,52,exhale,correct,0.594578799998999,P108
P108,-0.31,valid,53,exhale,correct,0.266589099999692,P108
P108,10,catch,54,exhale,incorrect,0.262515900001745,P108
P108,0.31,invalid,55,exhale,correct,0.328167499999836,P108
P108,-0.31,valid,56,exhale,correct,0.334428499998467,P108
P108,0.31,valid,57,exhale,correct,0.298807499999384,P108
P108,-0.31,invalid,58,exhale,correct,0.567968800001836,P108
P108,0.31,invalid,59,exhale,correct,0.283967199997278,P108
P108,10,catch,0,inhale,incorrect,0.36959410000054,P108
P108,10,catch,1,inhale,correct,NA,P108
P108,0.31,invalid,2,inhale,correct,0.536831900000834,P108
P108,0.31,invalid,3,inhale,correct,0.418868600001588,P108
P108,-0.31,valid,4,inhale,correct,0.394214500000089,P108
P108,-0.31,invalid,5,inhale,correct,0.417081999999937,P108
P108,0.31,valid,6,inhale,correct,0.32112159999815,P108
P108,-0.31,invalid,7,inhale,correct,0.383821700001135,P108
P108,-0.31,valid,8,inhale,correct,0.400131700000202,P108
P108,-0.31,invalid,9,inhale,correct,0.391367500000342,P108
P108,0.31,invalid,10,inhale,correct,0.365336999999272,P108
P108,-0.31,invalid,11,inhale,correct,0.33609670000078,P108
P108,0.31,valid,12,inhale,correct,0.362496100002318,P108
P108,10,catch,13,inhale,correct,NA,P108
P108,-0.31,invalid,14,inhale,correct,0.458475299998099,P108
P108,-0.31,valid,15,inhale,correct,0.370843000000605,P108
P108,10,catch,16,inhale,incorrect,0.352627000000211,P108
P108,10,catch,17,inhale,correct,NA,P108
P108,0.31,invalid,18,inhale,correct,0.51826820000133,P108
P108,10,catch,19,inhale,correct,NA,P108
P108,0.31,invalid,20,inhale,correct,0.425662199999351,P108
P108,-0.31,valid,21,inhale,correct,0.525387000001501,P108
P108,0.31,valid,22,inhale,correct,0.431943099996715,P108
P108,-0.31,invalid,23,inhale,correct,0.35844089999955,P108
P108,0.31,valid,24,inhale,correct,0.3035263999991,P108
P108,-0.31,invalid,25,inhale,correct,0.28794619999826,P108
P108,-0.31,valid,26,inhale,correct,0.868806899998162,P108
P108,0.31,valid,27,inhale,correct,0.288559800002986,P108
P108,10,catch,28,inhale,incorrect,0.383109700000205,P108
P108,0.31,valid,29,inhale,correct,0.503647200002888,P108
P108,0.31,valid,30,inhale,correct,0.519479200000205,P108
P108,-0.31,valid,31,inhale,correct,0.463861000000179,P108
P108,0.31,valid,32,inhale,correct,0.345297500000015,P108
P108,-0.31,invalid,33,inhale,correct,0.284404199999699,P108
P108,10,catch,34,inhale,correct,NA,P108
P108,0.31,valid,35,inhale,correct,0.373403099998541,P108
P108,-0.31,invalid,36,inhale,correct,0.394921899998735,P108
P108,0.31,invalid,37,inhale,correct,0.313070500000322,P108
P108,0.31,invalid,38,inhale,correct,0.391005900000891,P108
P108,0.31,valid,39,inhale,correct,0.553795100000571,P108
P108,0.31,invalid,40,inhale,correct,0.412726700000349,P108
P108,10,catch,41,inhale,correct,NA,P108
P108,-0.31,valid,42,inhale,correct,0.418820999999298,P108
P108,10,catch,43,inhale,correct,NA,P108
P108,0.31,invalid,44,inhale,correct,0.443770900001255,P108
P108,0.31,invalid,45,inhale,correct,0.355955999999424,P108
P108,0.31,valid,46,inhale,correct,0.30392589999974,P108
P108,-0.31,valid,47,inhale,correct,0.391509199998836,P108
P108,-0.31,invalid,48,inhale,correct,0.444243000001734,P108
P108,10,catch,49,inhale,correct,NA,P108
P108,-0.31,valid,50,inhale,correct,0.365136000000348,P108
P108,-0.31,valid,51,inhale,correct,0.362193799999659,P108
P108,-0.31,invalid,52,inhale,correct,0.403283400002692,P108
P108,-0.31,valid,53,inhale,correct,0.325635000001057,P108
P108,10,catch,54,inhale,incorrect,0.344014300000708,P108
P108,0.31,invalid,55,inhale,correct,0.424934999999095,P108
P108,-0.31,valid,56,inhale,correct,0.396679000001313,P108
P108,0.31,valid,57,inhale,correct,0.436255200002051,P108
P108,-0.31,invalid,58,inhale,correct,0.409608500001923,P108
P108,0.31,invalid,59,inhale,correct,0.380426600000646,P108
P109,10,catch,0,inhale,incorrect,0.281365199996799,P109
P109,10,catch,1,inhale,correct,NA,P109
P109,0.31,invalid,2,inhale,correct,0.346407699998963,P109
P109,0.31,invalid,3,inhale,correct,0.347489899999346,P109
P109,-0.31,valid,4,inhale,correct,0.39699489999839,P109
P109,-0.31,invalid,5,inhale,correct,0.304775099997642,P109
P109,0.31,valid,6,inhale,correct,0.317751499998849,P109
P109,-0.31,invalid,7,inhale,correct,0.345733800000744,P109
P109,-0.31,valid,8,inhale,correct,0.370534300000145,P109
P109,-0.31,invalid,9,inhale,correct,0.415310100001079,P109
P109,0.31,invalid,10,inhale,correct,0.328332599998248,P109
P109,-0.31,invalid,11,inhale,correct,0.380386100001488,P109
P109,0.31,valid,12,inhale,correct,0.503760100000363,P109
P109,10,catch,13,inhale,correct,NA,P109
P109,-0.31,invalid,14,inhale,correct,0.311217300000862,P109
P109,-0.31,valid,15,inhale,correct,0.357565999998769,P109
P109,10,catch,16,inhale,incorrect,0.251413300000422,P109
P109,10,catch,17,inhale,correct,NA,P109
P109,0.31,invalid,18,inhale,correct,0.422911499998008,P109
P109,10,catch,19,inhale,correct,NA,P109
P109,0.31,invalid,20,inhale,correct,0.386221500000829,P109
P109,-0.31,valid,21,inhale,correct,0.370721900002536,P109
P109,0.31,valid,22,inhale,correct,0.385838599999261,P109
P109,-0.31,invalid,23,inhale,correct,0.361129799999617,P109
P109,0.31,valid,24,inhale,correct,0.349704899999779,P109
P109,-0.31,invalid,25,inhale,correct,0.377863599998818,P109
P109,-0.31,valid,26,inhale,correct,0.392800999998144,P109
P109,0.31,valid,27,inhale,correct,0.41101609999896,P109
P109,10,catch,28,inhale,correct,NA,P109
P109,0.31,valid,29,inhale,correct,0.438575200001651,P109
P109,0.31,valid,30,inhale,correct,0.384903400001349,P109
P109,-0.31,valid,31,inhale,correct,0.32037069999933,P109
P109,0.31,valid,32,inhale,correct,0.297435000000405,P109
P109,-0.31,invalid,33,inhale,correct,0.406766899999639,P109
P109,10,catch,34,inhale,correct,NA,P109
P109,0.31,valid,35,inhale,correct,0.368095199999516,P109
P109,-0.31,invalid,36,inhale,correct,0.397823200000857,P109
P109,0.31,invalid,37,inhale,correct,0.391308999998728,P109
P109,0.31,invalid,38,inhale,correct,0.358977799998684,P109
P109,0.31,valid,39,inhale,correct,0.333402999996906,P109
P109,0.31,invalid,40,inhale,correct,0.350028299999394,P109
P109,10,catch,41,inhale,correct,NA,P109
P109,-0.31,valid,42,inhale,correct,0.410659100001794,P109
P109,10,catch,43,inhale,correct,NA,P109
P109,0.31,invalid,44,inhale,correct,0.331641099997796,P109
P109,0.31,invalid,45,inhale,correct,0.466180800001894,P109
P109,0.31,valid,46,inhale,correct,0.433360800001537,P109
P109,-0.31,valid,47,inhale,correct,0.339949900000647,P109
P109,-0.31,invalid,48,inhale,correct,0.371280799998203,P109
P109,10,catch,49,inhale,correct,NA,P109
P109,-0.31,valid,50,inhale,correct,0.458729800000583,P109
P109,-0.31,valid,51,inhale,correct,0.454555399999663,P109
P109,-0.31,invalid,52,inhale,correct,0.319358199998533,P109
P109,-0.31,valid,53,inhale,correct,0.339384999999311,P109
P109,10,catch,54,inhale,correct,NA,P109
P109,0.31,invalid,55,inhale,correct,0.417442299996765,P109
P109,-0.31,valid,56,inhale,correct,0.375162399999681,P109
P109,0.31,valid,57,inhale,correct,0.326667600002111,P109
P109,-0.31,invalid,58,inhale,correct,0.367507399998431,P109
P109,0.31,invalid,59,inhale,correct,0.351482399997622,P109
P109,10,catch,0,exhale,correct,NA,P109
P109,10,catch,1,exhale,correct,NA,P109
P109,0.31,invalid,2,exhale,correct,0.410905900000216,P109
P109,0.31,invalid,3,exhale,correct,0.352061099998537,P109
P109,-0.31,valid,4,exhale,correct,0.468205600001966,P109
P109,-0.31,invalid,5,exhale,correct,0.435670700000628,P109
P109,0.31,valid,6,exhale,correct,0.384526800000458,P109
P109,-0.31,invalid,7,exhale,correct,0.347173499998462,P109
P109,-0.31,valid,8,exhale,correct,0.30173350000041,P109
P109,-0.31,invalid,9,exhale,correct,0.415609100000438,P109
P109,0.31,invalid,10,exhale,correct,0.48008739999932,P109
P109,-0.31,invalid,11,exhale,correct,0.350541200001317,P109
P109,0.31,valid,12,exhale,correct,0.333741599999485,P109
P109,10,catch,13,exhale,correct,NA,P109
P109,-0.31,invalid,14,exhale,correct,0.407228199997917,P109
P109,-0.31,valid,15,exhale,correct,0.386128499998449,P109
P109,10,catch,16,exhale,correct,NA,P109
P109,10,catch,17,exhale,correct,NA,P109
P109,0.31,invalid,18,exhale,correct,0.386421800001699,P109
P109,10,catch,19,exhale,correct,NA,P109
P109,0.31,invalid,20,exhale,correct,0.460427300000447,P109
P109,-0.31,valid,21,exhale,correct,0.316477199998189,P109
P109,0.31,valid,22,exhale,correct,0.342607399998087,P109
P109,-0.31,invalid,23,exhale,correct,0.164476300000388,P109
P109,0.31,valid,24,exhale,correct,0.331469199998537,P109
P109,-0.31,invalid,25,exhale,correct,0.393170599996665,P109
P109,-0.31,valid,26,exhale,correct,0.270238700002665,P109
P109,0.31,valid,27,exhale,correct,0.34137290000217,P109
P109,10,catch,28,exhale,correct,NA,P109
P109,0.31,valid,29,exhale,correct,0.285524799997802,P109
P109,0.31,valid,30,exhale,correct,0.833453900002496,P109
P109,-0.31,valid,31,exhale,correct,0.415027200000623,P109
P109,0.31,valid,32,exhale,correct,0.367329200002132,P109
P109,-0.31,invalid,33,exhale,correct,0.381612299999688,P109
P109,10,catch,34,exhale,correct,NA,P109
P109,0.31,valid,35,exhale,correct,0.393701400000282,P109
P109,-0.31,invalid,36,exhale,correct,0.296412199997576,P109
P109,0.31,invalid,37,exhale,correct,0.475118099999236,P109
P109,0.31,invalid,38,exhale,correct,0.18287380000038,P109
P109,0.31,valid,39,exhale,correct,0.378528900000674,P109
P109,0.31,invalid,40,exhale,correct,0.315141600000061,P109
P109,10,catch,41,exhale,correct,NA,P109
P109,-0.31,valid,42,exhale,correct,0.349147199998697,P109
P109,10,catch,43,exhale,correct,NA,P109
P109,0.31,invalid,44,exhale,correct,0.38712360000136,P109
P109,0.31,invalid,45,exhale,correct,0.399206199999753,P109
P109,0.31,valid,46,exhale,correct,0.804422900000645,P109
P109,-0.31,valid,47,exhale,correct,0.459837100002915,P109
P109,-0.31,invalid,48,exhale,correct,0.40007059999698,P109
P109,10,catch,49,exhale,correct,NA,P109
P109,-0.31,valid,50,exhale,correct,0.36716510000042,P109
P109,-0.31,valid,51,exhale,correct,0.249212000002444,P109
P109,-0.31,invalid,52,exhale,correct,0.472052099998109,P109
P109,-0.31,valid,53,exhale,correct,0.783063300001231,P109
P109,10,catch,54,exhale,correct,NA,P109
P109,0.31,invalid,55,exhale,correct,0.371049499997753,P109
P109,-0.31,valid,56,exhale,correct,0.359757700000046,P109
P109,0.31,valid,57,exhale,correct,0.680939599998965,P109
P109,-0.31,invalid,58,exhale,correct,0.240510700001323,P109
P109,0.31,invalid,59,exhale,correct,0.269984999998996,P109
P110,10,catch,0,inhale,correct,NA,P110
P110,10,catch,1,inhale,correct,NA,P110
P110,0.31,invalid,2,inhale,correct,0.418780099999992,P110
P110,0.31,invalid,3,inhale,correct,0.420793499999945,P110
P110,-0.31,valid,4,inhale,correct,0.370390100000009,P110
P110,-0.31,invalid,5,inhale,correct,0.477302300000019,P110
P110,0.31,valid,6,inhale,correct,0.383141300000034,P110
P110,-0.31,invalid,7,inhale,correct,0.39610829999998,P110
P110,-0.31,valid,8,inhale,correct,0.384232199999985,P110
P110,-0.31,invalid,9,inhale,correct,0.471247399999982,P110
P110,0.31,invalid,10,inhale,correct,0.548807599999975,P110
P110,-0.31,invalid,11,inhale,correct,0.433695,P110
P110,0.31,valid,12,inhale,correct,0.581420000000037,P110
P110,10,catch,13,inhale,correct,NA,P110
P110,-0.31,invalid,14,inhale,correct,0.437520999999947,P110
P110,-0.31,valid,15,inhale,correct,0.550696100000096,P110
P110,10,catch,16,inhale,correct,NA,P110
P110,10,catch,17,inhale,correct,NA,P110
P110,0.31,invalid,18,inhale,correct,0.471699199999989,P110
P110,10,catch,19,inhale,correct,NA,P110
P110,0.31,invalid,20,inhale,correct,0.569238799999994,P110
P110,-0.31,valid,21,inhale,correct,0.424969899999951,P110
P110,0.31,valid,22,inhale,correct,0.504427300000089,P110
P110,-0.31,invalid,23,inhale,correct,0.452854100000081,P110
P110,0.31,valid,24,inhale,correct,0.517203499999937,P110
P110,-0.31,invalid,25,inhale,correct,0.4264083999999,P110
P110,-0.31,valid,26,inhale,correct,0.433805899999925,P110
P110,0.31,valid,27,inhale,correct,0.494091799999978,P110
P110,10,catch,28,inhale,correct,NA,P110
P110,0.31,valid,29,inhale,correct,0.462266,P110
P110,0.31,valid,30,inhale,correct,0.391030699999988,P110
P110,-0.31,valid,31,inhale,correct,0.46872129999997,P110
P110,0.31,valid,32,inhale,correct,0.559879099999989,P110
P110,-0.31,invalid,33,inhale,correct,0.490313499999957,P110
P110,10,catch,34,inhale,correct,NA,P110
P110,0.31,valid,35,inhale,correct,0.509198999999967,P110
P110,-0.31,invalid,36,inhale,correct,0.539968300000055,P110
P110,0.31,invalid,37,inhale,correct,0.524125400000003,P110
P110,0.31,invalid,38,inhale,correct,0.441984400000024,P110
P110,0.31,valid,39,inhale,correct,0.482512000000042,P110
P110,0.31,invalid,40,inhale,correct,0.694707199999925,P110
P110,10,catch,41,inhale,correct,NA,P110
P110,-0.31,valid,42,inhale,correct,0.396932699999979,P110
P110,10,catch,43,inhale,correct,NA,P110
P110,0.31,invalid,44,inhale,correct,0.400159300000041,P110
P110,0.31,invalid,45,inhale,correct,0.431561699999975,P110
P110,0.31,valid,46,inhale,correct,0.404971499999988,P110
P110,-0.31,valid,47,inhale,correct,0.403866499999936,P110
P110,-0.31,invalid,48,inhale,correct,0.416939299999967,P110
P110,10,catch,49,inhale,correct,NA,P110
P110,-0.31,valid,50,inhale,correct,0.302354400000013,P110
P110,-0.31,valid,51,inhale,correct,0.462163499999974,P110
P110,-0.31,invalid,52,inhale,correct,0.403561800000034,P110
P110,-0.31,valid,53,inhale,correct,0.451997300000016,P110
P110,10,catch,54,inhale,correct,NA,P110
P110,0.31,invalid,55,inhale,correct,0.525770200000011,P110
P110,-0.31,valid,56,inhale,correct,0.458963599999947,P110
P110,0.31,valid,57,inhale,correct,0.577586800000063,P110
P110,-0.31,invalid,58,inhale,correct,0.419899500000042,P110
P110,0.31,invalid,59,inhale,correct,0.630240599999979,P110
P110,10,catch,0,exhale,correct,NA,P110
P110,10,catch,1,exhale,correct,NA,P110
P110,0.31,invalid,2,exhale,correct,0.486971299999936,P110
P110,0.31,invalid,3,exhale,correct,0.5507116,P110
P110,-0.31,valid,4,exhale,correct,0.601765,P110
P110,-0.31,invalid,5,exhale,correct,0.419447499999933,P110
P110,0.31,valid,6,exhale,correct,0.438152999999943,P110
P110,-0.31,invalid,7,exhale,correct,0.475867699999981,P110
P110,-0.31,valid,8,exhale,correct,0.399695199999996,P110
P110,-0.31,invalid,9,exhale,correct,0.427937000000043,P110
P110,0.31,invalid,10,exhale,correct,0.626433199999951,P110
P110,-0.31,invalid,11,exhale,correct,0.408116500000006,P110
P110,0.31,valid,12,exhale,correct,0.368230900000071,P110
P110,10,catch,13,exhale,correct,NA,P110
P110,-0.31,invalid,14,exhale,correct,0.498436200000015,P110
P110,-0.31,valid,15,exhale,correct,0.407781900000032,P110
P110,10,catch,16,exhale,correct,NA,P110
P110,10,catch,17,exhale,correct,NA,P110
P110,0.31,invalid,18,exhale,correct,0.567142600000011,P110
P110,10,catch,19,exhale,correct,NA,P110
P110,0.31,invalid,20,exhale,correct,0.463290099999995,P110
P110,-0.31,valid,21,exhale,correct,0.451412799999957,P110
P110,0.31,valid,22,exhale,correct,0.496006399999942,P110
P110,-0.31,invalid,23,exhale,correct,0.433785199999988,P110
P110,0.31,valid,24,exhale,correct,0.446985599999948,P110
P110,-0.31,invalid,25,exhale,correct,0.373194800000078,P110
P110,-0.31,valid,26,exhale,correct,0.414362799999935,P110
P110,0.31,valid,27,exhale,correct,0.572838400000023,P110
P110,10,catch,28,exhale,correct,NA,P110
P110,0.31,valid,29,exhale,correct,0.459132999999952,P110
P110,0.31,valid,30,exhale,correct,0.49513659999991,P110
P110,-0.31,valid,31,exhale,correct,0.421620400000052,P110
P110,0.31,valid,32,exhale,correct,0.407346799999914,P110
P110,-0.31,invalid,33,exhale,correct,0.325350300000082,P110
P110,10,catch,34,exhale,correct,NA,P110
P110,0.31,valid,35,exhale,correct,0.417191399999979,P110
P110,-0.31,invalid,36,exhale,correct,0.45523819999994,P110
P110,0.31,invalid,37,exhale,correct,0.435811300000069,P110
P110,0.31,invalid,38,exhale,correct,0.5086996,P110
P110,0.31,valid,39,exhale,correct,0.408500699999991,P110
P110,0.31,invalid,40,exhale,correct,0.475035000000048,P110
P110,10,catch,41,exhale,correct,NA,P110
P110,-0.31,valid,42,exhale,correct,0.497175100000049,P110
P110,10,catch,43,exhale,correct,NA,P110
P110,0.31,invalid,44,exhale,correct,0.478882699999986,P110
P110,0.31,invalid,45,exhale,correct,0.59935710000002,P110
P110,0.31,valid,46,exhale,correct,0.505408800000055,P110
P110,-0.31,valid,47,exhale,correct,0.475312499999973,P110
P110,-0.31,invalid,48,exhale,correct,0.476409600000011,P110
P110,10,catch,49,exhale,correct,NA,P110
P110,-0.31,valid,50,exhale,correct,0.622165500000051,P110
P110,-0.31,valid,51,exhale,correct,0.452839599999947,P110
P110,-0.31,invalid,52,exhale,correct,0.444479200000046,P110
P110,-0.31,valid,53,exhale,correct,0.418943500000069,P110
P110,10,catch,54,exhale,correct,NA,P110
P110,0.31,invalid,55,exhale,correct,0.615273600000023,P110
P110,-0.31,valid,56,exhale,correct,0.48378619999994,P110
P110,0.31,valid,57,exhale,correct,0.458848399999965,P110
P110,-0.31,invalid,58,exhale,correct,0.386435099999971,P110
P110,0.31,invalid,59,exhale,correct,0.453775900000096,P110
P111,10,catch,0,exhale,correct,NA,P111
P111,10,catch,1,exhale,correct,NA,P111
P111,0.31,invalid,2,exhale,correct,0.409121799999411,P111
P111,0.31,invalid,3,exhale,correct,0.371599699999933,P111
P111,-0.31,valid,4,exhale,correct,0.449990399999479,P111
P111,-0.31,invalid,5,exhale,correct,0.372734999999921,P111
P111,0.31,valid,6,exhale,correct,0.41629439999997,P111
P111,-0.31,invalid,7,exhale,correct,0.406147799999417,P111
P111,-0.31,valid,8,exhale,correct,0.497626999999738,P111
P111,-0.31,invalid,9,exhale,correct,0.458640400000149,P111
P111,0.31,invalid,10,exhale,correct,0.467176899999686,P111
P111,-0.31,invalid,11,exhale,correct,0.378141099999993,P111
P111,0.31,valid,12,exhale,correct,0.429204199999731,P111
P111,10,catch,13,exhale,correct,NA,P111
P111,-0.31,invalid,14,exhale,correct,0.526582299999973,P111
P111,-0.31,valid,15,exhale,correct,0.446195200000147,P111
P111,10,catch,16,exhale,correct,NA,P111
P111,10,catch,17,exhale,correct,NA,P111
P111,0.31,invalid,18,exhale,correct,0.515907100000732,P111
P111,10,catch,19,exhale,correct,NA,P111
P111,0.31,invalid,20,exhale,correct,0.500516199999765,P111
P111,-0.31,valid,21,exhale,correct,0.828494200000023,P111
P111,0.31,valid,22,exhale,correct,0.382735900000625,P111
P111,-0.31,invalid,23,exhale,correct,0.419463799999903,P111
P111,0.31,valid,24,exhale,correct,0.385702599999604,P111
P111,-0.31,invalid,25,exhale,correct,0.370651799999905,P111
P111,-0.31,valid,26,exhale,correct,0.377003200000217,P111
P111,0.31,valid,27,exhale,correct,0.435235200000534,P111
P111,10,catch,28,exhale,correct,NA,P111
P111,0.31,valid,29,exhale,correct,0.437121599999955,P111
P111,0.31,valid,30,exhale,correct,0.382509600000049,P111
P111,-0.31,valid,31,exhale,correct,0.411457600000176,P111
P111,0.31,valid,32,exhale,correct,0.411197299999913,P111
P111,-0.31,invalid,33,exhale,correct,0.403639000000112,P111
P111,10,catch,34,exhale,correct,NA,P111
P111,0.31,valid,35,exhale,correct,0.477843299999222,P111
P111,-0.31,invalid,36,exhale,correct,0.62055109999983,P111
P111,0.31,invalid,37,exhale,correct,0.607956199999535,P111
P111,0.31,invalid,38,exhale,correct,0.575478200000362,P111
P111,0.31,valid,39,exhale,correct,0.477945399999953,P111
P111,0.31,invalid,40,exhale,correct,0.527850100000251,P111
P111,10,catch,41,exhale,correct,NA,P111
P111,-0.31,valid,42,exhale,correct,0.454837899999802,P111
P111,10,catch,43,exhale,correct,NA,P111
P111,0.31,invalid,44,exhale,correct,0.484947300000385,P111
P111,0.31,invalid,45,exhale,correct,0.447703699999693,P111
P111,0.31,valid,46,exhale,correct,0.438858800000162,P111
P111,-0.31,valid,47,exhale,correct,0.425604000000021,P111
P111,-0.31,invalid,48,exhale,correct,0.451511400000527,P111
P111,10,catch,49,exhale,incorrect,0.996086600000126,P111
P111,-0.31,valid,50,exhale,correct,0.56649600000037,P111
P111,-0.31,valid,51,exhale,correct,0.713094200000342,P111
P111,-0.31,invalid,52,exhale,correct,0.511652300000605,P111
P111,-0.31,valid,53,exhale,correct,0.606985299999906,P111
P111,10,catch,54,exhale,correct,NA,P111
P111,0.31,invalid,55,exhale,correct,0.509806600000047,P111
P111,-0.31,valid,56,exhale,correct,0.475854700000127,P111
P111,0.31,valid,57,exhale,correct,0.47538059999988,P111
P111,-0.31,invalid,58,exhale,correct,0.649703899999622,P111
P111,0.31,invalid,59,exhale,correct,0.511079099999733,P111
P111,10,catch,0,inhale,correct,NA,P111
P111,10,catch,1,inhale,correct,NA,P111
P111,0.31,invalid,2,inhale,correct,0.500331899999765,P111
P111,0.31,invalid,3,inhale,correct,0.480875299999752,P111
P111,-0.31,valid,4,inhale,correct,0.423176899999817,P111
P111,-0.31,invalid,5,inhale,correct,0.470696500000486,P111
P111,0.31,valid,6,inhale,correct,0.420197899999948,P111
P111,-0.31,invalid,7,inhale,correct,0.486648999999488,P111
P111,-0.31,valid,8,inhale,correct,0.449146400000245,P111
P111,-0.31,invalid,9,inhale,correct,0.421405300000515,P111
P111,0.31,invalid,10,inhale,correct,0.458575399999972,P111
P111,-0.31,invalid,11,inhale,correct,0.425423100000444,P111
P111,0.31,valid,12,inhale,correct,0.425574599999891,P111
P111,10,catch,13,inhale,correct,NA,P111
P111,-0.31,invalid,14,inhale,correct,0.44931859999997,P111
P111,-0.31,valid,15,inhale,correct,0.408987600000728,P111
P111,10,catch,16,inhale,correct,NA,P111
P111,10,catch,17,inhale,correct,NA,P111
P111,0.31,invalid,18,inhale,correct,0.503711100000146,P111
P111,10,catch,19,inhale,correct,NA,P111
P111,0.31,invalid,20,inhale,correct,0.499757500000669,P111
P111,-0.31,valid,21,inhale,correct,0.63613179999993,P111
P111,0.31,valid,22,inhale,correct,0.471518400000605,P111
P111,-0.31,invalid,23,inhale,correct,0.503829200000837,P111
P111,0.31,valid,24,inhale,correct,0.461377900000116,P111
P111,-0.31,invalid,25,inhale,correct,0.453369099999691,P111
P111,-0.31,valid,26,inhale,correct,0.465878200000589,P111
P111,0.31,valid,27,inhale,correct,0.472904400000516,P111
P111,10,catch,28,inhale,correct,NA,P111
P111,0.31,valid,29,inhale,correct,0.527898500000447,P111
P111,0.31,valid,30,inhale,correct,0.505467299999509,P111
P111,-0.31,valid,31,inhale,correct,0.434215999999651,P111
P111,0.31,valid,32,inhale,correct,0.479028700000526,P111
P111,-0.31,invalid,33,inhale,correct,0.427937399999792,P111
P111,10,catch,34,inhale,correct,NA,P111
P111,0.31,valid,35,inhale,correct,0.395648400000027,P111
P111,-0.31,invalid,36,inhale,correct,0.457005999999637,P111
P111,0.31,invalid,37,inhale,correct,0.571746800000255,P111
P111,0.31,invalid,38,inhale,correct,0.789733600000545,P111
P111,0.31,valid,39,inhale,correct,0.533760299999813,P111
P111,0.31,invalid,40,inhale,correct,0.463642400000026,P111
P111,10,catch,41,inhale,correct,NA,P111
P111,-0.31,valid,42,inhale,correct,0.405459800000244,P111
P111,10,catch,43,inhale,correct,NA,P111
P111,0.31,invalid,44,inhale,correct,0.491182200000367,P111
P111,0.31,invalid,45,inhale,correct,0.538969399999587,P111
P111,0.31,valid,46,inhale,correct,0.788710300000275,P111
P111,-0.31,valid,47,inhale,correct,0.445685100000446,P111
P111,-0.31,invalid,48,inhale,correct,0.540480200000275,P111
P111,10,catch,49,inhale,correct,NA,P111
P111,-0.31,valid,50,inhale,correct,0.444601899999725,P111
P111,-0.31,valid,51,inhale,correct,0.474036999999953,P111
P111,-0.31,invalid,52,inhale,correct,0.444585399999596,P111
P111,-0.31,valid,53,inhale,correct,0.457625200000621,P111
P111,10,catch,54,inhale,correct,NA,P111
P111,0.31,invalid,55,inhale,correct,0.443644300000415,P111
P111,-0.31,valid,56,inhale,correct,0.506614899999477,P111
P111,0.31,valid,57,inhale,correct,0.467562099999668,P111
P111,-0.31,invalid,58,inhale,correct,0.463834999999563,P111
P111,0.31,invalid,59,inhale,correct,0.470389199999772,P111
P112,10,catch,0,exhale,correct,NA,P112
P112,10,catch,1,exhale,correct,NA,P112
P112,0.31,invalid,2,exhale,correct,0.378889100000379,P112
P112,0.31,invalid,3,exhale,correct,0.31301799999892,P112
P112,-0.31,valid,4,exhale,correct,0.349220199999763,P112
P112,-0.31,invalid,5,exhale,correct,0.269434699999692,P112
P112,0.31,valid,6,exhale,correct,0.281429599999683,P112
P112,-0.31,invalid,7,exhale,correct,0.434112800001458,P112
P112,-0.31,valid,8,exhale,correct,0.377111200001309,P112
P112,-0.31,invalid,9,exhale,correct,0.335162699999273,P112
P112,0.31,invalid,10,exhale,correct,0.250466200001028,P112
P112,-0.31,invalid,11,exhale,correct,0.311316600000282,P112
P112,0.31,valid,12,exhale,correct,0.330600699999195,P112
P112,10,catch,13,exhale,incorrect,0.296540499999537,P112
P112,-0.31,invalid,14,exhale,correct,0.46214449999934,P112
P112,-0.31,valid,15,exhale,correct,0.435199599998668,P112
P112,10,catch,16,exhale,correct,NA,P112
P112,10,catch,17,exhale,correct,NA,P112
P112,0.31,invalid,18,exhale,correct,0.58789760000036,P112
P112,10,catch,19,exhale,incorrect,0.319906999999148,P112
P112,0.31,invalid,20,exhale,correct,0.579778799999985,P112
P112,-0.31,valid,21,exhale,correct,0.496893699999418,P112
P112,0.31,valid,22,exhale,correct,0.4661042000007,P112
P112,-0.31,invalid,23,exhale,correct,0.405846699999529,P112
P112,0.31,valid,24,exhale,correct,0.664687000000413,P112
P112,-0.31,invalid,25,exhale,correct,0.561682699999437,P112
P112,-0.31,valid,26,exhale,correct,0.541522599998643,P112
P112,0.31,valid,27,exhale,correct,0.451461999999083,P112
P112,10,catch,28,exhale,correct,NA,P112
P112,0.31,valid,29,exhale,correct,0.6276500999993,P112
P112,0.31,valid,30,exhale,correct,0.43995410000025,P112
P112,-0.31,valid,31,exhale,correct,0.350590799998827,P112
P112,0.31,valid,32,exhale,correct,0.342180599998755,P112
P112,-0.31,invalid,33,exhale,correct,0.441492699999799,P112
P112,10,catch,34,exhale,correct,NA,P112
P112,0.31,valid,35,exhale,correct,0.608695200000511,P112
P112,-0.31,invalid,36,exhale,correct,0.477887300001385,P112
P112,0.31,invalid,37,exhale,correct,0.471124800000325,P112
P112,0.31,invalid,38,exhale,correct,0.541155400000207,P112
P112,0.31,valid,39,exhale,correct,0.522980100000495,P112
P112,0.31,invalid,40,exhale,correct,0.418121499998961,P112
P112,10,catch,41,exhale,correct,NA,P112
P112,-0.31,valid,42,exhale,correct,0.439586000000418,P112
P112,10,catch,43,exhale,correct,NA,P112
P112,0.31,invalid,44,exhale,correct,0.41757090000101,P112
P112,0.31,invalid,45,exhale,correct,0.508394999998927,P112
P112,0.31,valid,46,exhale,correct,0.540159899999708,P112
P112,-0.31,valid,47,exhale,correct,0.427822699999524,P112
P112,-0.31,invalid,48,exhale,correct,0.394617999998445,P112
P112,10,catch,49,exhale,correct,NA,P112
P112,-0.31,valid,50,exhale,correct,0.439251100000547,P112
P112,-0.31,valid,51,exhale,correct,0.352069700000357,P112
P112,-0.31,invalid,52,exhale,correct,0.414435900000171,P112
P112,-0.31,valid,53,exhale,correct,0.423585399999865,P112
P112,10,catch,54,exhale,incorrect,0.305105199999161,P112
P112,0.31,invalid,55,exhale,correct,0.59174449999955,P112
P112,-0.31,valid,56,exhale,correct,0.342950700000074,P112
P112,0.31,valid,57,exhale,correct,0.534888800000772,P112
P112,-0.31,invalid,58,exhale,correct,0.449239300000045,P112
P112,0.31,invalid,59,exhale,correct,0.539515700000265,P112
P112,10,catch,0,inhale,correct,NA,P112
P112,10,catch,1,inhale,correct,NA,P112
P112,0.31,invalid,2,inhale,correct,0.475512300001355,P112
P112,0.31,invalid,3,inhale,correct,0.379896599999483,P112
P112,-0.31,valid,4,inhale,correct,0.446421700000428,P112
P112,-0.31,invalid,5,inhale,correct,0.419961499999772,P112
P112,0.31,valid,6,inhale,correct,0.487619699999414,P112
P112,-0.31,invalid,7,inhale,correct,0.403459200000725,P112
P112,-0.31,valid,8,inhale,correct,0.399336499998753,P112
P112,-0.31,invalid,9,inhale,correct,0.394656700000269,P112
P112,0.31,invalid,10,inhale,correct,0.444260999998733,P112
P112,-0.31,invalid,11,inhale,correct,0.441463299999668,P112
P112,0.31,valid,12,inhale,correct,0.390093999998498,P112
P112,10,catch,13,inhale,correct,NA,P112
P112,-0.31,invalid,14,inhale,correct,0.466363100000308,P112
P112,-0.31,valid,15,inhale,correct,0.402738900000259,P112
P112,10,catch,16,inhale,correct,NA,P112
P112,10,catch,17,inhale,correct,NA,P112
P112,0.31,invalid,18,inhale,correct,0.527778099998613,P112
P112,10,catch,19,inhale,correct,NA,P112
P112,0.31,invalid,20,inhale,correct,0.477558500000669,P112
P112,-0.31,valid,21,inhale,correct,0.420416799999657,P112
P112,0.31,valid,22,inhale,correct,0.465219600000637,P112
P112,-0.31,invalid,23,inhale,correct,0.441591700000572,P112
P112,0.31,valid,24,inhale,correct,0.399331700000403,P112
P112,-0.31,invalid,25,inhale,correct,0.582440000000133,P112
P112,-0.31,valid,26,inhale,correct,0.421448200000668,P112
P112,0.31,valid,27,inhale,correct,0.468374300000505,P112
P112,10,catch,28,inhale,correct,NA,P112
P112,0.31,valid,29,inhale,correct,0.490368200000376,P112
P112,0.31,valid,30,inhale,correct,0.446631300001172,P112
P112,-0.31,valid,31,inhale,correct,0.380273400000078,P112
P112,0.31,valid,32,inhale,correct,0.411348699999508,P112
P112,-0.31,invalid,33,inhale,correct,0.434847000000445,P112
P112,10,catch,34,inhale,correct,NA,P112
P112,0.31,valid,35,inhale,correct,0.493219599999065,P112
P112,-0.31,invalid,36,inhale,correct,0.422088000001168,P112
P112,0.31,invalid,37,inhale,correct,0.678697499999544,P112
P112,0.31,invalid,38,inhale,correct,0.440942100000029,P112
P112,0.31,valid,39,inhale,correct,0.395786200000657,P112
P112,0.31,invalid,40,inhale,correct,0.40971510000054,P112
P112,10,catch,41,inhale,correct,NA,P112
P112,-0.31,valid,42,inhale,correct,0.777659399998811,P112
P112,10,catch,43,inhale,correct,NA,P112
P112,0.31,invalid,44,inhale,correct,0.567745000000286,P112
P112,0.31,invalid,45,inhale,correct,0.383030499999222,P112
P112,0.31,valid,46,inhale,correct,0.404597499998999,P112
P112,-0.31,valid,47,inhale,correct,0.293326300001354,P112
P112,-0.31,invalid,48,inhale,correct,0.432118600001559,P112
P112,10,catch,49,inhale,correct,NA,P112
P112,-0.31,valid,50,inhale,correct,0.405224300000555,P112
P112,-0.31,valid,51,inhale,correct,0.426897900000768,P112
P112,-0.31,invalid,52,inhale,correct,0.37245410000105,P112
P112,-0.31,valid,53,inhale,correct,0.399266300000818,P112
P112,10,catch,54,inhale,correct,NA,P112
P112,0.31,invalid,55,inhale,correct,0.457696800000122,P112
P112,-0.31,valid,56,inhale,correct,0.36639969999851,P112
P112,0.31,valid,57,inhale,correct,0.409920599999168,P112
P112,-0.31,invalid,58,inhale,correct,0.425983699999051,P112
P112,0.31,invalid,59,inhale,correct,0.454456899999059,P112
P113,10,catch,0,inhale,correct,NA,P113
P113,10,catch,1,inhale,correct,NA,P113
P113,0.31,invalid,2,inhale,correct,0.390806800000064,P113
P113,0.31,invalid,3,inhale,correct,0.455865700000004,P113
P113,-0.31,valid,4,inhale,correct,0.359854000000041,P113
P113,-0.31,invalid,5,inhale,correct,0.349931200000128,P113
P113,0.31,valid,6,inhale,correct,0.363279299999931,P113
P113,-0.31,invalid,7,inhale,correct,0.354945799999996,P113
P113,-0.31,valid,8,inhale,correct,0.335367500000075,P113
P113,-0.31,invalid,9,inhale,correct,0.354155700000092,P113
P113,0.31,invalid,10,inhale,correct,0.355063299999983,P113
P113,-0.31,invalid,11,inhale,correct,0.765368099999932,P113
P113,0.31,valid,12,inhale,correct,0.372089799999912,P113
P113,10,catch,13,inhale,correct,NA,P113
P113,-0.31,invalid,14,inhale,correct,0.378143800000089,P113
P113,-0.31,valid,15,inhale,correct,0.335017500000049,P113
P113,10,catch,16,inhale,correct,NA,P113
P113,10,catch,17,inhale,correct,NA,P113
P113,0.31,invalid,18,inhale,correct,0.394415499999923,P113
P113,10,catch,19,inhale,correct,NA,P113
P113,0.31,invalid,20,inhale,correct,0.401428800000076,P113
P113,-0.31,valid,21,inhale,correct,0.384335399999827,P113
P113,0.31,valid,22,inhale,correct,0.315329900000052,P113
P113,-0.31,invalid,23,inhale,correct,0.384421900000007,P113
P113,0.31,valid,24,inhale,correct,0.334729100000004,P113
P113,-0.31,invalid,25,inhale,correct,0.393679700000121,P113
P113,-0.31,valid,26,inhale,correct,0.35672999999997,P113
P113,0.31,valid,27,inhale,correct,0.318671099999847,P113
P113,10,catch,28,inhale,correct,NA,P113
P113,0.31,valid,29,inhale,correct,0.35593579999977,P113
P113,0.31,valid,30,inhale,correct,0.337888499999735,P113
P113,-0.31,valid,31,inhale,correct,0.396199100000103,P113
P113,0.31,valid,32,inhale,correct,0.377151599999706,P113
P113,-0.31,invalid,33,inhale,correct,0.508651699999973,P113
P113,10,catch,34,inhale,correct,NA,P113
P113,0.31,valid,35,inhale,correct,0.358511100000214,P113
P113,-0.31,invalid,36,inhale,correct,0.34973059999993,P113
P113,0.31,invalid,37,inhale,correct,0.373189599999932,P113
P113,0.31,invalid,38,inhale,correct,0.326617199999873,P113
P113,0.31,valid,39,inhale,correct,0.329042800000025,P113
P113,0.31,invalid,40,inhale,correct,0.317919099999926,P113
P113,10,catch,41,inhale,correct,NA,P113
P113,-0.31,valid,42,inhale,correct,0.384406399999989,P113
P113,10,catch,43,inhale,correct,NA,P113
P113,0.31,invalid,44,inhale,correct,0.435202699999991,P113
P113,0.31,invalid,45,inhale,correct,0.333156499999859,P113
P113,0.31,valid,46,inhale,correct,0.399177100000088,P113
P113,-0.31,valid,47,inhale,correct,0.369432399999823,P113
P113,-0.31,invalid,48,inhale,correct,0.332471199999873,P113
P113,10,catch,49,inhale,correct,NA,P113
P113,-0.31,valid,50,inhale,correct,0.33231909999995,P113
P113,-0.31,valid,51,inhale,correct,0.367104100000233,P113
P113,-0.31,invalid,52,inhale,correct,0.356921499999771,P113
P113,-0.31,valid,53,inhale,correct,0.346179399999983,P113
P113,10,catch,54,inhale,correct,NA,P113
P113,0.31,invalid,55,inhale,correct,0.346282900000006,P113
P113,-0.31,valid,56,inhale,correct,0.402650800000174,P113
P113,0.31,valid,57,inhale,correct,0.396425799999633,P113
P113,-0.31,invalid,58,inhale,correct,0.356632600000012,P113
P113,0.31,invalid,59,inhale,correct,0.317434199999752,P113
P113,10,catch,0,exhale,correct,NA,P113
P113,10,catch,1,exhale,correct,NA,P113
P113,0.31,invalid,2,exhale,correct,0.372081600000001,P113
P113,0.31,invalid,3,exhale,correct,0.40931829999999497,P113
P113,-0.31,valid,4,exhale,correct,0.356376400000045,P113
P113,-0.31,invalid,5,exhale,correct,0.369956800000182,P113
P113,0.31,valid,6,exhale,correct,0.368337699999756,P113
P113,-0.31,invalid,7,exhale,correct,0.357394000000113,P113
P113,-0.31,valid,8,exhale,correct,0.300071000000116,P113
P113,-0.31,invalid,9,exhale,correct,0.327478400000018,P113
P113,0.31,invalid,10,exhale,correct,0.413791099999798,P113
P113,-0.31,invalid,11,exhale,correct,0.581199399999605,P113
P113,0.31,valid,12,exhale,correct,0.328436199999942,P113
P113,10,catch,13,exhale,correct,NA,P113
P113,-0.31,invalid,14,exhale,correct,0.403460199999699,P113
P113,-0.31,valid,15,exhale,correct,0.340230600000268,P113
P113,10,catch,16,exhale,incorrect,0.387838000000102,P113
P113,10,catch,17,exhale,incorrect,0.360395400000016,P113
P113,0.31,invalid,18,exhale,correct,0.375294500000109,P113
P113,10,catch,19,exhale,incorrect,0.377628499999901,P113
P113,0.31,invalid,20,exhale,correct,0.403526399999919,P113
P113,-0.31,valid,21,exhale,correct,0.469766600000185,P113
P113,0.31,valid,22,exhale,correct,0.351400399999875,P113
P113,-0.31,invalid,23,exhale,correct,0.338785899999948,P113
P113,0.31,valid,24,exhale,correct,0.347411199999897,P113
P113,-0.31,invalid,25,exhale,correct,0.491654299999936,P113
P113,-0.31,valid,26,exhale,correct,0.336916600000222,P113
P113,0.31,valid,27,exhale,correct,0.348096899999746,P113
P113,10,catch,28,exhale,correct,NA,P113
P113,0.31,valid,29,exhale,correct,0.331577200000083,P113
P113,0.31,valid,30,exhale,correct,0.342607000000044,P113
P113,-0.31,valid,31,exhale,correct,0.370282700000189,P113
P113,0.31,valid,32,exhale,correct,0.40437460000021,P113
P113,-0.31,invalid,33,exhale,correct,0.427222399999664,P113
P113,10,catch,34,exhale,correct,NA,P113
P113,0.31,valid,35,exhale,correct,0.339113500000167,P113
P113,-0.31,invalid,36,exhale,correct,0.389907900000253,P113
P113,0.31,invalid,37,exhale,correct,0.307787799999915,P113
P113,0.31,invalid,38,exhale,correct,0.33948989999999,P113
P113,0.31,valid,39,exhale,correct,0.344150700000228,P113
P113,0.31,invalid,40,exhale,correct,0.415339499999845,P113
P113,10,catch,41,exhale,incorrect,0.364485300000069,P113
P113,-0.31,valid,42,exhale,correct,0.345126900000196,P113
P113,10,catch,43,exhale,correct,NA,P113
P113,0.31,invalid,44,exhale,correct,0.5114552,P113
P113,0.31,invalid,45,exhale,correct,0.373595699999896,P113
P113,0.31,valid,46,exhale,correct,0.594041500000003,P113
P113,-0.31,valid,47,exhale,correct,0.371654999999919,P113
P113,-0.31,invalid,48,exhale,correct,0.370323399999961,P113
P113,10,catch,49,exhale,correct,NA,P113
P113,-0.31,valid,50,exhale,correct,0.329548199999863,P113
P113,-0.31,valid,51,exhale,correct,0.383738199999698,P113
P113,-0.31,invalid,52,exhale,correct,0.362136499999906,P113
P113,-0.31,valid,53,exhale,correct,0.399119400000018,P113
P113,10,catch,54,exhale,correct,NA,P113
P113,0.31,invalid,55,exhale,correct,0.420302900000024,P113
P113,-0.31,valid,56,exhale,correct,0.431435100000272,P113
P113,0.31,valid,57,exhale,correct,0.379384699999719,P113
P113,-0.31,invalid,58,exhale,correct,0.369364099999984,P113
P113,0.31,invalid,59,exhale,correct,0.338392799999838,P113
P114,10,catch,0,inhale,correct,NA,P114
P114,10,catch,1,inhale,correct,NA,P114
P114,0.31,invalid,2,inhale,correct,0.427629699988756,P114
P114,0.31,invalid,3,inhale,correct,0.372686799993971,P114
P114,-0.31,valid,4,inhale,correct,0.400687399989692,P114
P114,-0.31,invalid,5,inhale,correct,0.353918200009502,P114
P114,0.31,valid,6,inhale,correct,0.405509300006088,P114
P114,-0.31,invalid,7,inhale,correct,0.390862100000959,P114
P114,-0.31,valid,8,inhale,correct,0.351505800004816,P114
P114,-0.31,invalid,9,inhale,correct,0.317148499976611,P114
P114,0.31,invalid,10,inhale,correct,0.274839699995937,P114
P114,-0.31,invalid,11,inhale,correct,0.296665799978655,P114
P114,0.31,valid,12,inhale,correct,0.31633130001137,P114
P114,10,catch,13,inhale,incorrect,0.254963399987901,P114
P114,-0.31,invalid,14,inhale,correct,0.386181999987457,P114
P114,-0.31,valid,15,inhale,correct,0.297062900004676,P114
P114,10,catch,16,inhale,incorrect,0.285037499997998,P114
P114,10,catch,17,inhale,correct,NA,P114
P114,0.31,invalid,18,inhale,correct,0.306456699996488,P114
P114,10,catch,19,inhale,correct,NA,P114
P114,0.31,invalid,20,inhale,correct,0.380298100004438,P114
P114,-0.31,valid,21,inhale,correct,0.494505699985893,P114
P114,0.31,valid,22,inhale,correct,0.252775400003884,P114
P114,-0.31,invalid,23,inhale,correct,0.309459700016305,P114
P114,0.31,valid,24,inhale,correct,0.341486999997869,P114
P114,-0.31,invalid,25,inhale,correct,0.316640700009884,P114
P114,-0.31,valid,26,inhale,correct,0.333950100000948,P114
P114,0.31,valid,27,inhale,correct,0.334967399976449,P114
P114,10,catch,28,inhale,correct,NA,P114
P114,0.31,valid,29,inhale,correct,0.325797099998454,P114
P114,0.31,valid,30,inhale,correct,0.362458199990215,P114
P114,-0.31,valid,31,inhale,correct,0.347299699991709,P114
P114,0.31,valid,32,inhale,correct,0.293069700011984,P114
P114,-0.31,invalid,33,inhale,correct,0.282080300006783,P114
P114,10,catch,34,inhale,incorrect,0.321069900004659,P114
P114,0.31,valid,35,inhale,correct,0.418453199992655,P114
P114,-0.31,invalid,36,inhale,correct,0.405454099993221,P114
P114,0.31,invalid,37,inhale,correct,0.312989400001243,P114
P114,0.31,invalid,38,inhale,correct,0.396193599997787,P114
P114,0.31,valid,39,inhale,correct,0.284340800018981,P114
P114,0.31,invalid,40,inhale,correct,0.387680800020462,P114
P114,10,catch,41,inhale,correct,NA,P114
P114,-0.31,valid,42,inhale,correct,0.461456199991517,P114
P114,10,catch,43,inhale,correct,NA,P114
P114,0.31,invalid,44,inhale,correct,0.420122499985155,P114
P114,0.31,invalid,45,inhale,correct,0.285330299986526,P114
P114,0.31,valid,46,inhale,correct,0.391646100004436,P114
P114,-0.31,valid,47,inhale,correct,0.379059800005052,P114
P114,-0.31,invalid,48,inhale,correct,0.255451799981529,P114
P114,10,catch,49,inhale,incorrect,0.287800499994773,P114
P114,-0.31,valid,50,inhale,correct,0.344250099995406,P114
P114,-0.31,valid,51,inhale,correct,0.498131500004092,P114
P114,-0.31,invalid,52,inhale,correct,0.380039399984526,P114
P114,-0.31,valid,53,inhale,correct,0.320781199989142,P114
P114,10,catch,54,inhale,incorrect,0.237761099997442,P114
P114,0.31,invalid,55,inhale,correct,0.346417500026291,P114
P114,-0.31,valid,56,inhale,correct,0.3510510000051,P114
P114,0.31,valid,57,inhale,correct,0.279998800018802,P114
P114,-0.31,invalid,58,inhale,correct,0.307420800003456,P114
P114,0.31,invalid,59,inhale,correct,0.30842210000264503,P114
P114,10,catch,0,exhale,correct,NA,P114
P114,10,catch,1,exhale,correct,NA,P114
P114,0.31,invalid,2,exhale,correct,0.513325500010978,P114
P114,0.31,invalid,3,exhale,correct,0.448505699983798,P114
P114,-0.31,valid,4,exhale,correct,0.400012099999003,P114
P114,-0.31,invalid,5,exhale,correct,0.396675299998606,P114
P114,0.31,valid,6,exhale,correct,0.275712900009239,P114
P114,-0.31,invalid,7,exhale,correct,0.294193799985806,P114
P114,-0.31,valid,8,exhale,correct,0.321322600007989,P114
P114,-0.31,invalid,9,exhale,correct,0.331505400012247,P114
P114,0.31,invalid,10,exhale,correct,0.448544899991248,P114
P114,-0.31,invalid,11,exhale,correct,0.541214199998649,P114
P114,0.31,valid,12,exhale,correct,0.294265300006373,P114
P114,10,catch,13,exhale,incorrect,0.244887800014112,P114
P114,-0.31,invalid,14,exhale,correct,0.365213200013386,P114
P114,-0.31,valid,15,exhale,correct,0.362427000014577,P114
P114,10,catch,16,exhale,incorrect,0.268295999994734,P114
P114,10,catch,17,exhale,incorrect,0.331059899996035,P114
P114,0.31,invalid,18,exhale,correct,0.426522199995816,P114
P114,10,catch,19,exhale,incorrect,0.309814600012032,P114
P114,0.31,invalid,20,exhale,correct,0.518883999990067,P114
P114,-0.31,valid,21,exhale,correct,0.337578299979214,P114
P114,0.31,valid,22,exhale,correct,0.544200300006196,P114
P114,-0.31,invalid,23,exhale,correct,0.518388199998299,P114
P114,0.31,valid,24,exhale,correct,0.552673199999845,P114
P114,-0.31,invalid,25,exhale,correct,0.641174400021555,P114
P114,-0.31,valid,26,exhale,correct,0.368222799996147,P114
P114,0.31,valid,27,exhale,correct,0.309765599988168,P114
P114,10,catch,28,exhale,correct,NA,P114
P114,0.31,valid,29,exhale,correct,1.05856589999166,P114
P114,0.31,valid,30,exhale,correct,0.254156000009971,P114
P114,-0.31,valid,31,exhale,correct,0.309796199988341,P114
P114,0.31,valid,32,exhale,correct,0.532886299974052,P114
P114,-0.31,invalid,33,exhale,correct,1.08710979999159,P114
P114,10,catch,34,exhale,correct,NA,P114
P114,0.31,valid,35,exhale,correct,0.301676000002772,P114
P114,-0.31,invalid,36,exhale,correct,0.379691699985415,P114
P114,0.31,invalid,37,exhale,correct,0.250979500007816,P114
P114,0.31,invalid,38,exhale,correct,0.337336099997628,P114
P114,0.31,valid,39,exhale,correct,0.208725500007858,P114
P114,0.31,invalid,40,exhale,correct,0.350908899999922,P114
P114,10,catch,41,exhale,correct,NA,P114
P114,-0.31,valid,42,exhale,correct,0.308550599991577,P114
P114,10,catch,43,exhale,correct,NA,P114
P114,0.31,invalid,44,exhale,correct,0.371597699995618,P114
P114,0.31,invalid,45,exhale,correct,0.41958769998746,P114
P114,0.31,valid,46,exhale,correct,0.790412100002868,P114
P114,-0.31,valid,47,exhale,correct,0.384468000003835,P114
P114,-0.31,invalid,48,exhale,correct,0.335675100010121,P114
P114,10,catch,49,exhale,correct,NA,P114
P114,-0.31,valid,50,exhale,correct,0.382268799992744,P114
P114,-0.31,valid,51,exhale,correct,0.595310800010338,P114
P114,-0.31,invalid,52,exhale,correct,0.315465399995446,P114
P114,-0.31,valid,53,exhale,correct,0.35974700000952,P114
P114,10,catch,54,exhale,correct,NA,P114
P114,0.31,invalid,55,exhale,correct,0.461127299990039,P114
P114,-0.31,valid,56,exhale,correct,0.382457700005034,P114
P114,0.31,valid,57,exhale,correct,0.455922799999826,P114
P114,-0.31,invalid,58,exhale,correct,0.371475799998734,P114
P114,0.31,invalid,59,exhale,correct,0.343681800004561,P114
P115,10,catch,0,exhale,correct,NA,P115
P115,10,catch,1,exhale,correct,NA,P115
P115,0.31,invalid,2,exhale,correct,0.382527300011134,P115
P115,0.31,invalid,3,exhale,correct,0.585306099994341,P115
P115,-0.31,valid,4,exhale,correct,0.391264500009129,P115
P115,-0.31,invalid,5,exhale,correct,0.207298900000751,P115
P115,0.31,valid,6,exhale,correct,0.558123499999056,P115
P115,-0.31,invalid,7,exhale,correct,0.43985579998116,P115
P115,-0.31,valid,8,exhale,correct,0.38568419998046,P115
P115,-0.31,invalid,9,exhale,correct,0.4515209000092,P115
P115,0.31,invalid,10,exhale,correct,0.421771500026807,P115
P115,-0.31,invalid,11,exhale,correct,0.320721900003264,P115
P115,0.31,valid,12,exhale,correct,0.376104800001485,P115
P115,10,catch,13,exhale,correct,NA,P115
P115,-0.31,invalid,14,exhale,correct,0.326594600017415,P115
P115,-0.31,valid,15,exhale,correct,0.393339400005061,P115
P115,10,catch,16,exhale,correct,NA,P115
P115,10,catch,17,exhale,correct,NA,P115
P115,0.31,invalid,18,exhale,correct,0.374589699989883,P115
P115,10,catch,19,exhale,correct,NA,P115
P115,0.31,invalid,20,exhale,correct,0.393579399998998,P115
P115,-0.31,valid,21,exhale,correct,0.41678079997655,P115
P115,0.31,valid,22,exhale,correct,0.477295699995011,P115
P115,-0.31,invalid,23,exhale,correct,0.457519900024636,P115
P115,0.31,valid,24,exhale,correct,0.426318499987246,P115
P115,-0.31,invalid,25,exhale,correct,0.464791100006551,P115
P115,-0.31,valid,26,exhale,correct,0.419319900014671,P115
P115,0.31,valid,27,exhale,correct,0.425951699988218,P115
P115,10,catch,28,exhale,correct,NA,P115
P115,0.31,valid,29,exhale,correct,0.454946300014853,P115
P115,0.31,valid,30,exhale,correct,0.666344999975991,P115
P115,-0.31,valid,31,exhale,correct,0.318209800025215,P115
P115,0.31,valid,32,exhale,correct,0.403148300014436,P115
P115,-0.31,invalid,33,exhale,correct,0.399430399993435,P115
P115,10,catch,34,exhale,correct,NA,P115
P115,0.31,valid,35,exhale,correct,0.641895700013265,P115
P115,-0.31,invalid,36,exhale,correct,0.436892600002466,P115
P115,0.31,invalid,37,exhale,correct,0.391906600008952,P115
P115,0.31,invalid,38,exhale,correct,0.408864800003357,P115
P115,0.31,valid,39,exhale,correct,0.314853199990466,P115
P115,0.31,invalid,40,exhale,correct,0.429688700009137,P115
P115,10,catch,41,exhale,correct,NA,P115
P115,-0.31,valid,42,exhale,correct,0.404135700024199,P115
P115,10,catch,43,exhale,correct,NA,P115
P115,0.31,invalid,44,exhale,correct,0.447360399994068,P115
P115,0.31,invalid,45,exhale,correct,0.584679999999935,P115
P115,0.31,valid,46,exhale,correct,0.43480840002303,P115
P115,-0.31,valid,47,exhale,correct,0.423850099992706,P115
P115,-0.31,invalid,48,exhale,correct,0.44160789999296,P115
P115,10,catch,49,exhale,correct,NA,P115
P115,-0.31,valid,50,exhale,correct,0.439517799997702,P115
P115,-0.31,valid,51,exhale,correct,0.855455700017046,P115
P115,-0.31,invalid,52,exhale,correct,0.772964200004935,P115
P115,-0.31,valid,53,exhale,correct,0.342050500010373,P115
P115,10,catch,54,exhale,correct,NA,P115
P115,0.31,invalid,55,exhale,correct,0.491800799994962,P115
P115,-0.31,valid,56,exhale,correct,0.466242800001055,P115
P115,0.31,valid,57,exhale,correct,0.382010800007265,P115
P115,-0.31,invalid,58,exhale,correct,0.532575199991697,P115
P115,0.31,invalid,59,exhale,correct,0.468921499996213,P115
P115,10,catch,0,inhale,correct,NA,P115
P115,10,catch,1,inhale,correct,NA,P115
P115,0.31,invalid,2,inhale,correct,0.494704300013836,P115
P115,0.31,invalid,3,inhale,correct,0.430658600002062,P115
P115,-0.31,valid,4,inhale,correct,0.388922200014349,P115
P115,-0.31,invalid,5,inhale,correct,0.60430649999762,P115
P115,0.31,valid,6,inhale,correct,0.348823500011349,P115
P115,-0.31,invalid,7,inhale,correct,0.248327600012999,P115
P115,-0.31,valid,8,inhale,correct,0.551021899998887,P115
P115,-0.31,invalid,9,inhale,correct,0.4015549000178,P115
P115,0.31,invalid,10,inhale,correct,0.415879100008169,P115
P115,-0.31,invalid,11,inhale,correct,0.417111999995541,P115
P115,0.31,valid,12,inhale,correct,0.579606999992393,P115
P115,10,catch,13,inhale,correct,NA,P115
P115,-0.31,invalid,14,inhale,correct,0.384069099993212,P115
P115,-0.31,valid,15,inhale,correct,0.494349200016586,P115
P115,10,catch,16,inhale,correct,NA,P115
P115,10,catch,17,inhale,correct,NA,P115
P115,0.31,invalid,18,inhale,correct,0.381565899995621,P115
P115,10,catch,19,inhale,correct,NA,P115
P115,0.31,invalid,20,inhale,correct,0.671072400000412,P115
P115,-0.31,valid,21,inhale,correct,1.23712340000202,P115
P115,0.31,valid,22,inhale,correct,0.573422700021183,P115
P115,-0.31,invalid,23,inhale,correct,0.660570699983509,P115
P115,0.31,valid,24,inhale,correct,0.819307300000219,P115
P115,-0.31,invalid,25,inhale,correct,0.447164799988968,P115
P115,-0.31,valid,26,inhale,correct,0.420699099980993,P115
P115,0.31,valid,27,inhale,correct,0.531863300013356,P115
P115,10,catch,28,inhale,incorrect,0.309966200002236,P115
P115,0.31,valid,29,inhale,correct,0.408562500000698,P115
P115,0.31,valid,30,inhale,correct,0.461751900002128,P115
P115,-0.31,valid,31,inhale,correct,0.488726300012786,P115
P115,0.31,valid,32,inhale,correct,0.233997400006047,P115
P115,-0.31,invalid,33,inhale,correct,0.403821099986089,P115
P115,10,catch,34,inhale,correct,NA,P115
P115,0.31,valid,35,inhale,correct,0.473219199979212,P115
P115,-0.31,invalid,36,inhale,correct,0.422346000006655,P115
P115,0.31,invalid,37,inhale,correct,0.411035900004208,P115
P115,0.31,invalid,38,inhale,correct,0.395777199999429,P115
P115,0.31,valid,39,inhale,correct,0.435422399983509,P115
P115,0.31,invalid,40,inhale,correct,0.410191200004192,P115
P115,10,catch,41,inhale,correct,NA,P115
P115,-0.31,valid,42,inhale,correct,0.37561220000498,P115
P115,10,catch,43,inhale,correct,NA,P115
P115,0.31,invalid,44,inhale,correct,0.426721199997701,P115
P115,0.31,invalid,45,inhale,correct,0.527303599985316,P115
P115,0.31,valid,46,inhale,correct,0.641506200016011,P115
P115,-0.31,valid,47,inhale,correct,0.428263599984348,P115
P115,-0.31,invalid,48,inhale,correct,0.507184000016423,P115
P115,10,catch,49,inhale,correct,NA,P115
P115,-0.31,valid,50,inhale,correct,1.01823929999955,P115
P115,-0.31,valid,51,inhale,correct,0.687172200006898,P115
P115,-0.31,invalid,52,inhale,correct,0.520178900012979,P115
P115,-0.31,valid,53,inhale,correct,0.559421299985843,P115
P115,10,catch,54,inhale,correct,NA,P115
P115,0.31,invalid,55,inhale,correct,0.477487800002564,P115
P115,-0.31,valid,56,inhale,correct,0.56440279999515,P115
P115,0.31,valid,57,inhale,correct,0.399266699998407,P115
P115,-0.31,invalid,58,inhale,correct,0.50536879998981,P115
P115,0.31,invalid,59,inhale,correct,0.95806839998113,P115
P116,10,catch,0,exhale,correct,NA,P116
P116,10,catch,1,exhale,correct,NA,P116
P116,0.31,invalid,2,exhale,correct,0.476121900021099,P116
P116,0.31,invalid,3,exhale,correct,0.59930840000743,P116
P116,-0.31,valid,4,exhale,correct,0.680651399976341,P116
P116,-0.31,invalid,5,exhale,correct,0.569588399986969,P116
P116,0.31,valid,6,exhale,correct,0.472183399979258,P116
P116,-0.31,invalid,7,exhale,correct,0.64698170000338,P116
P116,-0.31,valid,8,exhale,correct,0.457937200000742,P116
P116,-0.31,invalid,9,exhale,correct,0.4292368000024,P116
P116,0.31,invalid,10,exhale,correct,0.608557500003371,P116
P116,-0.31,invalid,11,exhale,correct,0.34406560001662,P116
P116,0.31,valid,12,exhale,correct,0.343362600018736,P116
P116,10,catch,13,exhale,correct,NA,P116
P116,-0.31,invalid,14,exhale,correct,0.360348600021098,P116
P116,-0.31,valid,15,exhale,correct,1.23733709999942,P116
P116,10,catch,16,exhale,correct,NA,P116
P116,10,catch,17,exhale,correct,NA,P116
P116,0.31,invalid,18,exhale,correct,0.529074999998556,P116
P116,10,catch,19,exhale,correct,NA,P116
P116,0.31,invalid,20,exhale,correct,0.60087160000694,P116
